'sample interval','SpO2','hr'
'1 sec','%','bpm'
0,97.00000000,82.00076296
1,96.00000000,81.00053407
2,96.00000000,82.00076296
3,96.00000000,81.00053407
4,96.00000000,82.00076296
5,96.00000000,82.00076296
6,96.00000000,83.00009156
7,96.00000000,83.00009156
8,96.00000000,81.00053407
9,96.00000000,79.00007630
10,96.00000000,75.00006104
11,96.00000000,74.00073244
12,96.00000000,74.00073244
13,96.00000000,74.00073244
14,96.00000000,75.00006104
15,96.00000000,75.00006104
16,96.00000000,76.00028993
17,96.00000000,75.00006104
18,96.00000000,76.00028993
19,96.00000000,75.00006104
20,96.00000000,75.00006104
21,96.00000000,76.00028993
22,96.00000000,76.00028993
23,96.00000000,77.00051881
24,96.00000000,77.00051881
25,96.00000000,77.00051881
26,96.00000000,77.00051881
27,96.00000000,77.00051881
28,96.00000000,77.00051881
29,96.00000000,77.00051881
30,96.00000000,81.00053407
31,96.00000000,81.00053407
32,96.00000000,82.00076296
33,96.00000000,82.00076296
34,96.00000000,80.00030519
35,96.00000000,79.00007630
36,96.00000000,78.00074770
37,96.00000000,77.00051881
38,96.00000000,75.00006104
39,96.00000000,74.00073244
40,96.00000000,74.00073244
41,96.00000000,74.00073244
42,96.00000000,74.00073244
43,96.00000000,74.00073244
44,96.00000000,74.00073244
45,96.00000000,75.00006104
46,96.00000000,75.00006104
47,96.00000000,75.00006104
48,96.00000000,76.00028993
49,96.00000000,76.00028993
50,95.00000000,77.00051881
51,95.00000000,77.00051881
52,95.00000000,78.00074770
53,95.00000000,78.00074770
54,96.00000000,79.00007630
55,95.00000000,80.00030519
56,95.00000000,80.00030519
57,95.00000000,80.00030519
58,95.00000000,80.00030519
59,95.00000000,80.00030519
60,95.00000000,79.00007630
61,95.00000000,79.00007630
62,95.00000000,78.00074770
63,95.00000000,77.00051881
64,95.00000000,77.00051881
65,95.00000000,76.00028993
66,95.00000000,76.00028993
67,95.00000000,75.00006104
68,95.00000000,75.00006104
69,96.00000000,75.00006104
70,96.00000000,75.00006104
71,96.00000000,75.00006104
72,96.00000000,75.00006104
73,96.00000000,78.00074770
74,96.00000000,78.00074770
75,96.00000000,80.00030519
76,96.00000000,80.00030519
77,96.00000000,77.00051881
78,96.00000000,76.00028993
79,96.00000000,75.00006104
80,96.00000000,74.00073244
81,96.00000000,74.00073244
82,96.00000000,73.00050356
83,96.00000000,73.00050356
84,96.00000000,73.00050356
85,96.00000000,73.00050356
86,96.00000000,74.00073244
87,96.00000000,74.00073244
88,96.00000000,75.00006104
89,96.00000000,76.00028993
90,96.00000000,76.00028993
91,96.00000000,76.00028993
92,96.00000000,77.00051881
93,96.00000000,78.00074770
94,96.00000000,79.00007630
95,96.00000000,80.00030519
96,96.00000000,80.00030519
97,96.00000000,81.00053407
98,96.00000000,82.00076296
99,96.00000000,82.00076296
100,96.00000000,82.00076296
101,96.00000000,82.00076296
102,96.00000000,82.00076296
103,96.00000000,82.00076296
104,96.00000000,83.00009156
105,96.00000000,86.00077822
106,96.00000000,86.00077822
107,96.00000000,86.00077822
108,96.00000000,87.00010681
109,96.00000000,87.00010681
110,96.00000000,85.00054933
111,96.00000000,84.00032044
112,96.00000000,84.00032044
113,96.00000000,82.00076296
114,96.00000000,81.00053407
115,96.00000000,80.00030519
116,96.00000000,80.00030519
117,96.00000000,80.00030519
118,96.00000000,80.00030519
119,96.00000000,81.00053407
120,96.00000000,82.00076296
121,96.00000000,84.00032044
122,96.00000000,84.00032044
123,96.00000000,84.00032044
124,96.00000000,84.00032044
125,96.00000000,84.00032044
126,96.00000000,84.00032044
127,96.00000000,84.00032044
128,96.00000000,84.00032044
129,96.00000000,83.00009156
130,96.00000000,83.00009156
131,96.00000000,83.00009156
132,96.00000000,81.00053407
133,96.00000000,81.00053407
134,96.00000000,81.00053407
135,96.00000000,81.00053407
136,96.00000000,81.00053407
137,96.00000000,81.00053407
138,96.00000000,80.00030519
139,96.00000000,79.00007630
140,96.00000000,79.00007630
141,96.00000000,78.00074770
142,96.00000000,78.00074770
143,96.00000000,78.00074770
144,96.00000000,78.00074770
145,96.00000000,78.00074770
146,96.00000000,77.00051881
147,96.00000000,77.00051881
148,96.00000000,77.00051881
149,96.00000000,76.00028993
150,96.00000000,76.00028993
151,96.00000000,76.00028993
152,96.00000000,75.00006104
153,96.00000000,75.00006104
154,96.00000000,75.00006104
155,96.00000000,75.00006104
156,96.00000000,76.00028993
157,96.00000000,76.00028993
158,97.00000000,77.00051881
159,97.00000000,77.00051881
160,97.00000000,77.00051881
161,96.00000000,77.00051881
162,97.00000000,78.00074770
163,96.00000000,78.00074770
164,96.00000000,78.00074770
165,96.00000000,78.00074770
166,96.00000000,79.00007630
167,96.00000000,79.00007630
168,96.00000000,79.00007630
169,96.00000000,79.00007630
170,96.00000000,80.00030519
171,96.00000000,81.00053407
172,96.00000000,81.00053407
173,96.00000000,82.00076296
174,96.00000000,82.00076296
175,96.00000000,81.00053407
176,96.00000000,81.00053407
177,96.00000000,80.00030519
178,96.00000000,80.00030519
179,96.00000000,80.00030519
180,96.00000000,79.00007630
181,96.00000000,79.00007630
182,96.00000000,81.00053407
183,96.00000000,81.00053407
184,96.00000000,81.00053407
185,96.00000000,81.00053407
186,96.00000000,80.00030519
187,96.00000000,80.00030519
188,96.00000000,79.00007630
189,96.00000000,80.00030519
190,96.00000000,79.00007630
191,96.00000000,79.00007630
192,96.00000000,80.00030519
193,96.00000000,79.00007630
194,96.00000000,80.00030519
195,96.00000000,81.00053407
196,96.00000000,81.00053407
197,96.00000000,82.00076296
198,96.00000000,82.00076296
199,96.00000000,82.00076296
200,96.00000000,82.00076296
201,96.00000000,83.00009156
202,96.00000000,83.00009156
203,96.00000000,84.00032044
204,97.00000000,84.00032044
205,97.00000000,84.00032044
206,97.00000000,84.00032044
207,97.00000000,83.00009156
208,97.00000000,84.00032044
209,97.00000000,83.00009156
210,97.00000000,83.00009156
211,96.00000000,83.00009156
212,97.00000000,83.00009156
213,96.00000000,83.00009156
214,97.00000000,83.00009156
215,97.00000000,83.00009156
216,97.00000000,84.00032044
217,97.00000000,84.00032044
218,96.00000000,84.00032044
219,96.00000000,84.00032044
220,96.00000000,84.00032044
221,96.00000000,84.00032044
222,96.00000000,84.00032044
223,96.00000000,85.00054933
224,96.00000000,86.00077822
225,96.00000000,85.00054933
226,96.00000000,84.00032044
227,96.00000000,84.00032044
228,96.00000000,83.00009156
229,96.00000000,83.00009156
230,96.00000000,83.00009156
231,96.00000000,83.00009156
232,96.00000000,84.00032044
233,96.00000000,84.00032044
234,96.00000000,84.00032044
235,96.00000000,85.00054933
236,96.00000000,85.00054933
237,96.00000000,85.00054933
238,96.00000000,85.00054933
239,96.00000000,85.00054933
240,96.00000000,85.00054933
241,96.00000000,86.00077822
242,96.00000000,86.00077822
243,96.00000000,86.00077822
244,96.00000000,86.00077822
245,96.00000000,85.00054933
246,96.00000000,86.00077822
247,96.00000000,86.00077822
248,96.00000000,86.00077822
249,96.00000000,86.00077822
250,96.00000000,87.00010681
251,96.00000000,87.00010681
252,96.00000000,87.00010681
253,96.00000000,88.00033570
254,96.00000000,88.00033570
255,97.00000000,87.00010681
256,97.00000000,87.00010681
257,96.00000000,88.00033570
258,97.00000000,89.00056459
259,97.00000000,89.00056459
260,96.00000000,89.00056459
261,96.00000000,89.00056459
262,96.00000000,88.00033570
263,96.00000000,88.00033570
264,96.00000000,88.00033570
265,97.00000000,87.00010681
266,97.00000000,87.00010681
267,97.00000000,87.00010681
268,97.00000000,87.00010681
269,97.00000000,87.00010681
270,97.00000000,87.00010681
271,97.00000000,87.00010681
272,97.00000000,87.00010681
273,97.00000000,87.00010681
274,97.00000000,87.00010681
275,97.00000000,87.00010681
276,97.00000000,89.00056459
277,97.00000000,90.00079348
278,97.00000000,88.00033570
279,97.00000000,87.00010681
280,96.00000000,86.00077822
281,96.00000000,86.00077822
282,96.00000000,84.00032044
283,96.00000000,84.00032044
284,96.00000000,83.00009156
285,96.00000000,82.00076296
286,96.00000000,81.00053407
287,96.00000000,81.00053407
288,97.00000000,80.00030519
289,97.00000000,79.00007630
290,97.00000000,78.00074770
291,97.00000000,78.00074770
292,97.00000000,78.00074770
293,97.00000000,78.00074770
294,97.00000000,78.00074770
295,97.00000000,79.00007630
296,97.00000000,80.00030519
297,97.00000000,80.00030519
298,97.00000000,81.00053407
299,97.00000000,83.00009156
300,97.00000000,84.00032044
301,96.00000000,79.00007630
302,95.00000000,79.00007630
303,96.00000000,79.00007630
304,96.00000000,80.00030519
305,96.00000000,80.00030519
306,96.00000000,80.00030519
307,96.00000000,82.00076296
308,96.00000000,82.00076296
309,96.00000000,84.00032044
310,96.00000000,84.00032044
311,96.00000000,84.00032044
312,96.00000000,85.00054933
313,96.00000000,88.00033570
314,96.00000000,91.00012207
315,96.00000000,91.00012207
316,97.00000000,95.99946593
317,97.00000000,99.99948119
318,97.00000000,102.99926756
319,98.00000000,102.99926756
320,98.00000000,102.99926756
321,98.00000000,102.99926756
322,98.00000000,101.99993896
323,98.00000000,99.99948119
324,98.00000000,99.99948119
325,98.00000000,99.99948119
326,98.00000000,99.99948119
327,98.00000000,100.99971007
328,98.00000000,100.99971007
329,98.00000000,100.99971007
330,98.00000000,100.99971007
331,98.00000000,101.99993896
332,98.00000000,101.99993896
333,98.00000000,101.99993896
334,98.00000000,98.99925230
335,98.00000000,94.00080874
336,98.00000000,93.00057985
337,98.00000000,91.00012207
338,98.00000000,90.00079348
339,98.00000000,89.00056459
340,98.00000000,89.00056459
341,97.00000000,89.00056459
342,97.00000000,90.00079348
343,97.00000000,90.00079348
344,97.00000000,91.00012207
345,97.00000000,91.00012207
346,97.00000000,90.00079348
347,97.00000000,90.00079348
348,97.00000000,90.00079348
349,97.00000000,91.00012207
350,97.00000000,91.00012207
351,97.00000000,91.00012207
352,97.00000000,91.00012207
353,97.00000000,91.00012207
354,97.00000000,90.00079348
355,97.00000000,90.00079348
356,97.00000000,91.00012207
357,97.00000000,91.00012207
358,97.00000000,92.00035096
359,97.00000000,92.00035096
360,97.00000000,93.00057985
361,96.00000000,93.00057985
362,96.00000000,93.00057985
363,96.00000000,93.00057985
364,97.00000000,93.00057985
365,97.00000000,93.00057985
366,96.00000000,93.00057985
367,96.00000000,93.00057985
368,96.00000000,93.00057985
369,96.00000000,93.00057985
370,96.00000000,93.00057985
371,96.00000000,93.00057985
372,96.00000000,93.00057985
373,96.00000000,93.00057985
374,96.00000000,93.00057985
375,96.00000000,93.00057985
376,96.00000000,93.00057985
377,96.00000000,93.00057985
378,96.00000000,93.00057985
379,96.00000000,93.00057985
380,96.00000000,93.00057985
381,96.00000000,93.00057985
382,96.00000000,93.00057985
383,97.00000000,94.00080874
384,97.00000000,95.00013733
385,97.00000000,95.00013733
386,98.00000000,95.99946593
387,98.00000000,95.99946593
388,98.00000000,96.99969482
389,98.00000000,96.99969482
390,98.00000000,96.99969482
391,98.00000000,96.99969482
392,98.00000000,95.99946593
393,98.00000000,95.00013733
394,98.00000000,95.00013733
395,98.00000000,95.00013733
396,98.00000000,95.00013733
397,98.00000000,95.00013733
398,98.00000000,95.00013733
399,98.00000000,95.00013733
400,98.00000000,95.00013733
401,98.00000000,95.00013733
402,98.00000000,95.00013733
403,98.00000000,95.00013733
404,98.00000000,95.00013733
405,98.00000000,95.00013733
406,97.00000000,95.00013733
407,96.00000000,95.00013733
408,96.00000000,95.00013733
409,96.00000000,95.00013733
410,96.00000000,95.00013733
411,96.00000000,95.00013733
412,96.00000000,95.00013733
413,96.00000000,95.00013733
414,96.00000000,95.00013733
415,96.00000000,95.00013733
416,96.00000000,95.00013733
417,96.00000000,95.00013733
418,96.00000000,94.00080874
419,97.00000000,94.00080874
420,97.00000000,94.00080874
421,97.00000000,94.00080874
422,96.00000000,93.00057985
423,96.00000000,93.00057985
424,96.00000000,93.00057985
425,96.00000000,92.00035096
426,96.00000000,92.00035096
427,97.00000000,92.00035096
428,97.00000000,92.00035096
429,97.00000000,92.00035096
430,97.00000000,92.00035096
431,97.00000000,92.00035096
432,96.00000000,92.00035096
433,96.00000000,92.00035096
434,96.00000000,92.00035096
435,96.00000000,92.00035096
436,96.00000000,92.00035096
437,96.00000000,91.00012207
438,96.00000000,91.00012207
439,96.00000000,91.00012207
440,96.00000000,91.00012207
441,96.00000000,91.00012207
442,96.00000000,90.00079348
443,97.00000000,90.00079348
444,97.00000000,90.00079348
445,97.00000000,90.00079348
446,97.00000000,90.00079348
447,97.00000000,90.00079348
448,97.00000000,90.00079348
449,96.00000000,90.00079348
450,96.00000000,91.00012207
451,96.00000000,92.00035096
452,96.00000000,93.00057985
453,96.00000000,93.00057985
454,96.00000000,93.00057985
455,96.00000000,93.00057985
456,96.00000000,94.00080874
457,96.00000000,94.00080874
458,96.00000000,94.00080874
459,96.00000000,94.00080874
460,96.00000000,94.00080874
461,96.00000000,94.00080874
462,96.00000000,94.00080874
463,96.00000000,94.00080874
464,96.00000000,94.00080874
465,96.00000000,95.00013733
466,96.00000000,95.00013733
467,96.00000000,94.00080874
468,96.00000000,94.00080874
469,96.00000000,94.00080874
470,96.00000000,94.00080874
471,96.00000000,94.00080874
472,96.00000000,94.00080874
473,96.00000000,95.00013733
474,96.00000000,95.00013733
475,96.00000000,95.99946593
476,96.00000000,95.99946593
477,96.00000000,95.99946593
478,96.00000000,95.99946593
479,96.00000000,95.99946593
480,97.00000000,95.99946593
481,97.00000000,95.99946593
482,97.00000000,95.99946593
483,96.00000000,95.99946593
484,96.00000000,95.99946593
485,96.00000000,95.99946593
486,96.00000000,95.99946593
487,96.00000000,95.99946593
488,96.00000000,95.99946593
489,96.00000000,95.99946593
490,96.00000000,95.99946593
491,96.00000000,95.99946593
492,95.00000000,95.99946593
493,95.00000000,95.99946593
494,95.00000000,95.99946593
495,95.00000000,95.99946593
496,95.00000000,95.99946593
497,95.00000000,95.99946593
498,95.00000000,95.00013733
499,95.00000000,95.00013733
500,95.00000000,94.00080874
501,95.00000000,94.00080874
502,95.00000000,93.00057985
503,95.00000000,93.00057985
504,95.00000000,94.00080874
505,95.00000000,94.00080874
506,95.00000000,94.00080874
507,95.00000000,94.00080874
508,95.00000000,94.00080874
509,95.00000000,94.00080874
510,95.00000000,94.00080874
511,95.00000000,95.00013733
512,95.00000000,95.00013733
513,95.00000000,95.99946593
514,95.00000000,95.99946593
515,95.00000000,95.99946593
516,95.00000000,95.99946593
517,95.00000000,95.99946593
518,95.00000000,95.99946593
519,95.00000000,95.99946593
520,95.00000000,98.99925230
521,95.00000000,98.99925230
522,95.00000000,98.99925230
523,95.00000000,98.99925230
524,95.00000000,99.99948119
525,95.00000000,99.99948119
526,95.00000000,102.99926756
527,95.00000000,102.99926756
528,95.00000000,103.99949644
529,95.00000000,104.99972533
530,95.00000000,104.99972533
531,95.00000000,106.99928282
532,94.00000000,106.99928282
533,94.00000000,106.99928282
534,94.00000000,106.99928282
535,94.00000000,106.99928282
536,94.00000000,107.99951170
537,94.00000000,108.99974059
538,94.00000000,108.99974059
539,94.00000000,108.99974059
540,94.00000000,108.99974059
541,94.00000000,108.99974059
542,95.00000000,108.99974059
543,95.00000000,108.99974059
544,95.00000000,108.99974059
545,95.00000000,108.99974059
546,95.00000000,108.99974059
547,95.00000000,109.99996948
548,95.00000000,109.99996948
549,95.00000000,110.99929807
550,95.00000000,110.99929807
551,95.00000000,111.99952696
552,95.00000000,111.99952696
553,95.00000000,111.99952696
554,95.00000000,111.99952696
555,95.00000000,111.99952696
556,95.00000000,111.99952696
557,95.00000000,111.99952696
558,95.00000000,112.99975585
559,95.00000000,112.99975585
560,95.00000000,112.99975585
561,95.00000000,112.99975585
562,95.00000000,112.99975585
563,94.00000000,112.99975585
564,94.00000000,113.99998474
565,94.00000000,114.99931333
566,94.00000000,114.99931333
567,94.00000000,114.99931333
568,94.00000000,119.99955748
569,94.00000000,119.99955748
570,94.00000000,119.99955748
571,94.00000000,119.99955748
572,94.00000000,120.99978637
573,94.00000000,121.99911496
574,94.00000000,121.99911496
575,94.00000000,121.99911496
576,94.00000000,121.99911496
577,94.00000000,121.99911496
578,94.00000000,122.99934385
579,95.00000000,123.99957274
580,95.00000000,123.99957274
581,95.00000000,123.99957274
582,96.00000000,124.99980163
583,96.00000000,124.99980163
584,96.00000000,124.99980163
585,96.00000000,124.99980163
586,96.00000000,124.99980163
587,96.00000000,124.99980163
588,96.00000000,124.99980163
589,96.00000000,124.99980163
590,95.00000000,124.99980163
591,95.00000000,124.99980163
592,95.00000000,124.99980163
593,95.00000000,124.99980163
594,95.00000000,124.99980163
595,95.00000000,124.99980163
596,95.00000000,124.99980163
597,95.00000000,124.99980163
598,95.00000000,124.99980163
599,95.00000000,124.99980163
600,95.00000000,124.99980163
601,95.00000000,124.99980163
602,95.00000000,124.99980163
603,96.00000000,123.99957274
604,96.00000000,122.99934385
605,96.00000000,121.99911496
606,96.00000000,121.99911496
607,96.00000000,120.99978637
608,96.00000000,120.99978637
609,96.00000000,121.99911496
610,96.00000000,121.99911496
611,96.00000000,121.99911496
612,96.00000000,120.99978637
613,96.00000000,120.99978637
614,96.00000000,120.99978637
615,96.00000000,120.99978637
616,96.00000000,120.99978637
617,96.00000000,120.99978637
618,96.00000000,120.99978637
619,96.00000000,120.99978637
620,96.00000000,120.99978637
621,96.00000000,120.99978637
622,96.00000000,121.99911496
623,96.00000000,121.99911496
624,96.00000000,121.99911496
625,97.00000000,122.99934385
626,97.00000000,122.99934385
627,97.00000000,123.99957274
628,97.00000000,106.99928282
629,97.00000000,106.99928282
630,97.00000000,106.99928282
631,97.00000000,106.99928282
632,97.00000000,103.99949644
633,97.00000000,98.99925230
634,97.00000000,95.00013733
635,97.00000000,90.00079348
636,97.00000000,88.00033570
637,97.00000000,86.00077822
638,97.00000000,87.00010681
639,98.00000000,88.00033570
640,98.00000000,88.00033570
641,98.00000000,87.00010681
642,98.00000000,85.00054933
643,98.00000000,84.00032044
644,98.00000000,83.00009156
645,98.00000000,82.00076296
646,97.00000000,82.00076296
647,97.00000000,81.00053407
648,97.00000000,81.00053407
649,97.00000000,81.00053407
650,98.00000000,80.00030519
651,97.00000000,80.00030519
652,97.00000000,80.00030519
653,97.00000000,80.00030519
654,98.00000000,79.00007630
655,97.00000000,79.00007630
656,98.00000000,79.00007630
657,98.00000000,79.00007630
658,98.00000000,79.00007630
659,98.00000000,80.00030519
660,98.00000000,80.00030519
661,98.00000000,81.00053407
662,97.00000000,82.00076296
663,97.00000000,83.00009156
664,97.00000000,86.00077822
665,97.00000000,87.00010681
666,97.00000000,90.00079348
667,97.00000000,91.00012207
668,97.00000000,91.00012207
669,97.00000000,91.00012207
670,97.00000000,90.00079348
671,97.00000000,89.00056459
672,97.00000000,88.00033570
673,96.00000000,84.00032044
674,96.00000000,83.00009156
675,96.00000000,81.00053407
676,96.00000000,80.00030519
677,96.00000000,78.00074770
678,96.00000000,75.00006104
679,96.00000000,75.00006104
680,96.00000000,74.00073244
681,96.00000000,74.00073244
682,97.00000000,73.00050356
683,97.00000000,74.00073244
684,97.00000000,74.00073244
685,97.00000000,75.00006104
686,97.00000000,75.00006104
687,97.00000000,76.00028993
688,97.00000000,77.00051881
689,97.00000000,78.00074770
690,97.00000000,78.00074770
691,97.00000000,79.00007630
692,97.00000000,80.00030519
693,97.00000000,79.00007630
694,97.00000000,79.00007630
695,97.00000000,79.00007630
696,97.00000000,79.00007630
697,97.00000000,79.00007630
698,97.00000000,79.00007630
699,97.00000000,79.00007630
700,97.00000000,80.00030519
701,97.00000000,79.00007630
702,97.00000000,79.00007630
703,97.00000000,79.00007630
704,97.00000000,78.00074770
705,97.00000000,79.00007630
706,97.00000000,79.00007630
707,97.00000000,79.00007630
708,97.00000000,79.00007630
709,97.00000000,79.00007630
710,97.00000000,80.00030519
711,97.00000000,80.00030519
712,97.00000000,80.00030519
713,97.00000000,82.00076296
714,97.00000000,82.00076296
715,97.00000000,84.00032044
716,97.00000000,84.00032044
717,97.00000000,85.00054933
718,97.00000000,85.00054933
719,97.00000000,85.00054933
720,97.00000000,84.00032044
721,97.00000000,84.00032044
722,97.00000000,84.00032044
723,97.00000000,84.00032044
724,97.00000000,85.00054933
725,97.00000000,85.00054933
726,97.00000000,85.00054933
727,97.00000000,85.00054933
728,97.00000000,84.00032044
729,97.00000000,84.00032044
730,97.00000000,84.00032044
731,97.00000000,84.00032044
732,97.00000000,85.00054933
733,97.00000000,85.00054933
734,97.00000000,85.00054933
735,97.00000000,85.00054933
736,97.00000000,86.00077822
737,97.00000000,86.00077822
738,97.00000000,88.00033570
739,97.00000000,89.00056459
740,97.00000000,89.00056459
741,97.00000000,88.00033570
742,97.00000000,88.00033570
743,97.00000000,88.00033570
744,97.00000000,85.00054933
745,97.00000000,85.00054933
746,97.00000000,84.00032044
747,97.00000000,85.00054933
748,97.00000000,86.00077822
749,97.00000000,85.00054933
750,97.00000000,85.00054933
751,97.00000000,84.00032044
752,97.00000000,84.00032044
753,97.00000000,84.00032044
754,97.00000000,83.00009156
755,97.00000000,82.00076296
756,97.00000000,80.00030519
757,97.00000000,78.00074770
758,97.00000000,78.00074770
759,97.00000000,78.00074770
760,97.00000000,78.00074770
761,97.00000000,79.00007630
762,98.00000000,80.00030519
763,98.00000000,80.00030519
764,98.00000000,80.00030519
765,97.00000000,80.00030519
766,98.00000000,80.00030519
767,98.00000000,80.00030519
768,98.00000000,80.00030519
769,98.00000000,79.00007630
770,98.00000000,79.00007630
771,98.00000000,79.00007630
772,98.00000000,79.00007630
773,98.00000000,79.00007630
774,98.00000000,79.00007630
775,98.00000000,79.00007630
776,98.00000000,80.00030519
777,98.00000000,80.00030519
778,98.00000000,80.00030519
779,98.00000000,80.00030519
780,98.00000000,80.00030519
781,98.00000000,79.00007630
782,98.00000000,78.00074770
783,98.00000000,78.00074770
784,98.00000000,77.00051881
785,98.00000000,77.00051881
786,98.00000000,77.00051881
787,98.00000000,76.00028993
788,98.00000000,76.00028993
789,98.00000000,77.00051881
790,98.00000000,77.00051881
791,98.00000000,77.00051881
792,98.00000000,78.00074770
793,98.00000000,78.00074770
794,98.00000000,78.00074770
795,98.00000000,78.00074770
796,98.00000000,78.00074770
797,98.00000000,78.00074770
798,98.00000000,78.00074770
799,97.00000000,78.00074770
800,97.00000000,76.00028993
801,97.00000000,76.00028993
802,97.00000000,76.00028993
803,97.00000000,76.00028993
804,97.00000000,77.00051881
805,97.00000000,77.00051881
806,97.00000000,78.00074770
807,97.00000000,78.00074770
808,97.00000000,78.00074770
809,97.00000000,78.00074770
810,97.00000000,77.00051881
811,97.00000000,77.00051881
812,97.00000000,77.00051881
813,97.00000000,77.00051881
814,97.00000000,77.00051881
815,97.00000000,78.00074770
816,97.00000000,79.00007630
817,97.00000000,79.00007630
818,97.00000000,80.00030519
819,97.00000000,80.00030519
820,97.00000000,80.00030519
821,97.00000000,81.00053407
822,97.00000000,81.00053407
823,97.00000000,81.00053407
824,97.00000000,80.00030519
825,97.00000000,79.00007630
826,97.00000000,79.00007630
827,97.00000000,79.00007630
828,97.00000000,79.00007630
829,97.00000000,79.00007630
830,97.00000000,78.00074770
831,97.00000000,78.00074770
832,97.00000000,77.00051881
833,97.00000000,77.00051881
834,97.00000000,77.00051881
835,97.00000000,77.00051881
836,97.00000000,77.00051881
837,97.00000000,76.00028993
838,97.00000000,77.00051881
839,97.00000000,77.00051881
840,97.00000000,76.00028993
841,97.00000000,76.00028993
842,97.00000000,77.00051881
843,97.00000000,77.00051881
844,97.00000000,77.00051881
845,97.00000000,78.00074770
846,97.00000000,78.00074770
847,97.00000000,78.00074770
848,97.00000000,78.00074770
849,98.00000000,78.00074770
850,98.00000000,78.00074770
851,98.00000000,78.00074770
852,98.00000000,78.00074770
853,98.00000000,78.00074770
854,98.00000000,78.00074770
855,98.00000000,78.00074770
856,98.00000000,78.00074770
857,98.00000000,79.00007630
858,98.00000000,80.00030519
859,98.00000000,80.00030519
860,98.00000000,79.00007630
861,98.00000000,80.00030519
862,98.00000000,79.00007630
863,97.00000000,79.00007630
864,97.00000000,79.00007630
865,97.00000000,80.00030519
866,97.00000000,80.00030519
867,97.00000000,84.00032044
868,97.00000000,84.00032044
869,97.00000000,85.00054933
870,97.00000000,85.00054933
871,97.00000000,85.00054933
872,97.00000000,86.00077822
873,97.00000000,86.00077822
874,97.00000000,85.00054933
875,97.00000000,85.00054933
876,97.00000000,85.00054933
877,97.00000000,85.00054933
878,97.00000000,86.00077822
879,97.00000000,85.00054933
880,97.00000000,85.00054933
881,97.00000000,86.00077822
882,97.00000000,86.00077822
883,97.00000000,87.00010681
884,97.00000000,87.00010681
885,97.00000000,88.00033570
886,97.00000000,88.00033570
887,97.00000000,88.00033570
888,97.00000000,88.00033570
889,97.00000000,88.00033570
890,97.00000000,87.00010681
891,97.00000000,86.00077822
892,97.00000000,86.00077822
893,97.00000000,84.00032044
894,97.00000000,84.00032044
895,97.00000000,82.00076296
896,97.00000000,81.00053407
897,97.00000000,81.00053407
898,97.00000000,81.00053407
899,97.00000000,81.00053407
900,97.00000000,85.00054933
901,97.00000000,85.00054933
902,97.00000000,87.00010681
903,97.00000000,85.00054933
904,97.00000000,83.00009156
905,97.00000000,82.00076296
906,96.00000000,80.00030519
907,96.00000000,79.00007630
908,96.00000000,79.00007630
909,96.00000000,79.00007630
910,97.00000000,79.00007630
911,97.00000000,80.00030519
912,97.00000000,80.00030519
913,97.00000000,80.00030519
914,97.00000000,80.00030519
915,97.00000000,80.00030519
916,97.00000000,81.00053407
917,97.00000000,81.00053407
918,97.00000000,80.00030519
919,97.00000000,80.00030519
920,97.00000000,79.00007630
921,97.00000000,79.00007630
922,97.00000000,79.00007630
923,97.00000000,79.00007630
924,97.00000000,79.00007630
925,97.00000000,79.00007630
926,97.00000000,79.00007630
927,97.00000000,79.00007630
928,97.00000000,79.00007630
929,98.00000000,83.00009156
930,98.00000000,83.00009156
931,98.00000000,83.00009156
932,98.00000000,84.00032044
933,97.00000000,86.00077822
934,97.00000000,86.00077822
935,97.00000000,86.00077822
936,98.00000000,88.00033570
937,97.00000000,90.00079348
938,97.00000000,93.00057985
939,97.00000000,93.00057985
940,97.00000000,93.00057985
941,97.00000000,93.00057985
942,97.00000000,93.00057985
943,97.00000000,93.00057985
944,97.00000000,93.00057985
945,96.00000000,93.00057985
946,95.00000000,93.00057985
947,95.00000000,93.00057985
948,95.00000000,93.00057985
949,95.00000000,93.00057985
950,95.00000000,93.00057985
951,95.00000000,93.00057985
952,95.00000000,93.00057985
953,95.00000000,93.00057985
954,95.00000000,93.00057985
955,95.00000000,93.00057985
956,95.00000000,94.00080874
957,95.00000000,92.00035096
958,96.00000000,88.00033570
959,98.00000000,83.00009156
960,98.00000000,82.00076296
961,98.00000000,81.00053407
962,98.00000000,79.00007630
963,98.00000000,79.00007630
964,98.00000000,78.00074770
965,98.00000000,78.00074770
966,98.00000000,78.00074770
967,98.00000000,78.00074770
968,98.00000000,78.00074770
969,98.00000000,78.00074770
970,98.00000000,78.00074770
971,98.00000000,78.00074770
972,98.00000000,78.00074770
973,98.00000000,78.00074770
974,98.00000000,78.00074770
975,98.00000000,78.00074770
976,98.00000000,78.00074770
977,98.00000000,78.00074770
978,98.00000000,78.00074770
979,98.00000000,78.00074770
980,98.00000000,79.00007630
981,98.00000000,80.00030519
982,98.00000000,80.00030519
983,98.00000000,80.00030519
984,98.00000000,80.00030519
985,98.00000000,81.00053407
986,98.00000000,81.00053407
987,98.00000000,81.00053407
988,98.00000000,82.00076296
989,98.00000000,82.00076296
990,98.00000000,82.00076296
991,98.00000000,81.00053407
992,98.00000000,81.00053407
993,98.00000000,82.00076296
994,98.00000000,82.00076296
995,98.00000000,82.00076296
996,98.00000000,83.00009156
997,98.00000000,83.00009156
998,98.00000000,84.00032044
999,98.00000000,83.00009156
1000,98.00000000,83.00009156
1001,98.00000000,83.00009156
1002,98.00000000,83.00009156
1003,98.00000000,83.00009156
1004,98.00000000,83.00009156
1005,98.00000000,83.00009156
1006,98.00000000,83.00009156
1007,98.00000000,83.00009156
1008,98.00000000,82.00076296
1009,98.00000000,82.00076296
1010,98.00000000,82.00076296
1011,97.00000000,81.00053407
1012,97.00000000,81.00053407
1013,97.00000000,81.00053407
1014,97.00000000,81.00053407
1015,98.00000000,81.00053407
1016,98.00000000,81.00053407
1017,98.00000000,80.00030519
1018,98.00000000,80.00030519
1019,98.00000000,79.00007630
1020,98.00000000,79.00007630
1021,98.00000000,79.00007630
1022,98.00000000,79.00007630
1023,98.00000000,78.00074770
1024,98.00000000,78.00074770
1025,98.00000000,78.00074770
1026,97.00000000,78.00074770
1027,97.00000000,78.00074770
1028,97.00000000,78.00074770
1029,98.00000000,79.00007630
1030,98.00000000,79.00007630
1031,98.00000000,79.00007630
1032,98.00000000,82.00076296
1033,98.00000000,82.00076296
1034,98.00000000,84.00032044
1035,98.00000000,84.00032044
1036,98.00000000,84.00032044
1037,98.00000000,84.00032044
1038,98.00000000,84.00032044
1039,98.00000000,85.00054933
1040,98.00000000,85.00054933
1041,98.00000000,85.00054933
1042,98.00000000,85.00054933
1043,98.00000000,85.00054933
1044,98.00000000,85.00054933
1045,98.00000000,85.00054933
1046,98.00000000,85.00054933
1047,98.00000000,85.00054933
1048,98.00000000,83.00009156
1049,98.00000000,81.00053407
1050,98.00000000,78.00074770
1051,98.00000000,77.00051881
1052,98.00000000,77.00051881
1053,98.00000000,78.00074770
1054,98.00000000,81.00053407
1055,98.00000000,83.00009156
1056,98.00000000,82.00076296
1057,98.00000000,82.00076296
1058,98.00000000,80.00030519
1059,98.00000000,77.00051881
1060,98.00000000,76.00028993
1061,98.00000000,75.00006104
1062,98.00000000,74.00073244
1063,98.00000000,74.00073244
1064,98.00000000,74.00073244
1065,98.00000000,74.00073244
1066,98.00000000,75.00006104
1067,98.00000000,75.00006104
1068,98.00000000,76.00028993
1069,98.00000000,76.00028993
1070,98.00000000,76.00028993
1071,98.00000000,75.00006104
1072,98.00000000,75.00006104
1073,98.00000000,76.00028993
1074,98.00000000,76.00028993
1075,98.00000000,77.00051881
1076,98.00000000,78.00074770
1077,98.00000000,79.00007630
1078,98.00000000,79.00007630
1079,98.00000000,79.00007630
1080,98.00000000,78.00074770
1081,98.00000000,77.00051881
1082,98.00000000,77.00051881
1083,98.00000000,76.00028993
1084,98.00000000,76.00028993
1085,98.00000000,76.00028993
1086,98.00000000,76.00028993
1087,98.00000000,77.00051881
1088,98.00000000,76.00028993
1089,98.00000000,76.00028993
1090,98.00000000,76.00028993
1091,98.00000000,77.00051881
1092,98.00000000,77.00051881
1093,98.00000000,77.00051881
1094,98.00000000,77.00051881
1095,98.00000000,77.00051881
1096,98.00000000,77.00051881
1097,98.00000000,77.00051881
1098,98.00000000,77.00051881
1099,98.00000000,77.00051881
1100,98.00000000,78.00074770
1101,98.00000000,79.00007630
1102,98.00000000,79.00007630
1103,98.00000000,79.00007630
1104,98.00000000,79.00007630
1105,98.00000000,79.00007630
1106,98.00000000,79.00007630
1107,98.00000000,79.00007630
1108,98.00000000,78.00074770
1109,98.00000000,78.00074770
1110,98.00000000,78.00074770
1111,98.00000000,77.00051881
1112,98.00000000,77.00051881
1113,98.00000000,77.00051881
1114,98.00000000,77.00051881
1115,98.00000000,76.00028993
1116,98.00000000,76.00028993
1117,98.00000000,75.00006104
1118,98.00000000,75.00006104
1119,98.00000000,76.00028993
1120,98.00000000,77.00051881
1121,98.00000000,79.00007630
1122,98.00000000,79.00007630
1123,98.00000000,79.00007630
1124,98.00000000,79.00007630
1125,98.00000000,79.00007630
1126,98.00000000,79.00007630
1127,98.00000000,79.00007630
1128,98.00000000,79.00007630
1129,98.00000000,79.00007630
1130,98.00000000,78.00074770
1131,98.00000000,78.00074770
1132,98.00000000,78.00074770
1133,98.00000000,78.00074770
1134,98.00000000,78.00074770
1135,98.00000000,77.00051881
1136,98.00000000,77.00051881
1137,98.00000000,77.00051881
1138,98.00000000,77.00051881
1139,98.00000000,77.00051881
1140,98.00000000,77.00051881
1141,98.00000000,77.00051881
1142,97.00000000,76.00028993
1143,97.00000000,76.00028993
1144,97.00000000,76.00028993
1145,97.00000000,76.00028993
1146,97.00000000,75.00006104
1147,97.00000000,76.00028993
1148,97.00000000,76.00028993
1149,98.00000000,79.00007630
1150,98.00000000,79.00007630
1151,98.00000000,79.00007630
1152,98.00000000,79.00007630
1153,98.00000000,80.00030519
1154,98.00000000,80.00030519
1155,98.00000000,79.00007630
1156,98.00000000,78.00074770
1157,98.00000000,77.00051881
1158,98.00000000,79.00007630
1159,98.00000000,79.00007630
1160,98.00000000,82.00076296
1161,98.00000000,82.00076296
1162,98.00000000,81.00053407
1163,98.00000000,81.00053407
1164,98.00000000,81.00053407
1165,98.00000000,81.00053407
1166,98.00000000,81.00053407
1167,98.00000000,79.00007630
1168,97.00000000,79.00007630
1169,97.00000000,79.00007630
1170,97.00000000,78.00074770
1171,97.00000000,78.00074770
1172,97.00000000,78.00074770
1173,97.00000000,79.00007630
1174,98.00000000,79.00007630
1175,97.00000000,79.00007630
1176,98.00000000,80.00030519
1177,97.00000000,79.00007630
1178,97.00000000,79.00007630
1179,97.00000000,79.00007630
1180,97.00000000,79.00007630
1181,97.00000000,79.00007630
1182,98.00000000,79.00007630
1183,98.00000000,79.00007630
1184,97.00000000,79.00007630
1185,97.00000000,79.00007630
1186,97.00000000,80.00030519
1187,98.00000000,81.00053407
1188,98.00000000,83.00009156
1189,98.00000000,83.00009156
1190,98.00000000,86.00077822
1191,98.00000000,86.00077822
1192,98.00000000,86.00077822
1193,98.00000000,86.00077822
1194,97.00000000,85.00054933
1195,97.00000000,85.00054933
1196,97.00000000,83.00009156
1197,96.00000000,82.00076296
1198,96.00000000,82.00076296
1199,96.00000000,82.00076296
1200,96.00000000,82.00076296
1201,96.00000000,82.00076296
1202,96.00000000,81.00053407
1203,96.00000000,80.00030519
1204,97.00000000,81.00053407
1205,97.00000000,80.00030519
1206,97.00000000,80.00030519
1207,97.00000000,80.00030519
1208,97.00000000,80.00030519
1209,97.00000000,80.00030519
1210,97.00000000,80.00030519
1211,97.00000000,80.00030519
1212,97.00000000,80.00030519
1213,97.00000000,80.00030519
1214,97.00000000,80.00030519
1215,97.00000000,80.00030519
1216,96.00000000,80.00030519
1217,96.00000000,79.00007630
1218,96.00000000,78.00074770
1219,95.00000000,78.00074770
1220,95.00000000,78.00074770
1221,95.00000000,76.00028993
1222,95.00000000,75.00006104
1223,95.00000000,75.00006104
1224,95.00000000,77.00051881
1225,96.00000000,77.00051881
1226,96.00000000,78.00074770
1227,96.00000000,78.00074770
1228,96.00000000,76.00028993
1229,96.00000000,76.00028993
1230,97.00000000,75.00006104
1231,96.00000000,75.00006104
1232,96.00000000,75.00006104
1233,96.00000000,75.00006104
1234,96.00000000,75.00006104
1235,96.00000000,75.00006104
1236,96.00000000,75.00006104
1237,96.00000000,75.00006104
1238,97.00000000,76.00028993
1239,97.00000000,76.00028993
1240,97.00000000,76.00028993
1241,97.00000000,76.00028993
1242,97.00000000,76.00028993
1243,97.00000000,76.00028993
1244,97.00000000,75.00006104
1245,96.00000000,75.00006104
1246,96.00000000,75.00006104
1247,96.00000000,75.00006104
1248,96.00000000,75.00006104
1249,96.00000000,75.00006104
1250,96.00000000,75.00006104
1251,96.00000000,76.00028993
1252,97.00000000,77.00051881
1253,97.00000000,77.00051881
1254,96.00000000,78.00074770
1255,96.00000000,78.00074770
1256,96.00000000,78.00074770
1257,96.00000000,78.00074770
1258,96.00000000,78.00074770
1259,96.00000000,78.00074770
1260,96.00000000,78.00074770
1261,96.00000000,78.00074770
1262,97.00000000,78.00074770
1263,97.00000000,78.00074770
1264,98.00000000,80.00030519
1265,98.00000000,80.00030519
1266,98.00000000,80.00030519
1267,98.00000000,80.00030519
1268,98.00000000,80.00030519
1269,98.00000000,81.00053407
1270,98.00000000,81.00053407
1271,98.00000000,81.00053407
1272,98.00000000,81.00053407
1273,98.00000000,81.00053407
1274,98.00000000,81.00053407
1275,98.00000000,81.00053407
1276,99.00000000,81.00053407
1277,99.00000000,81.00053407
1278,99.00000000,81.00053407
1279,98.00000000,80.00030519
1280,98.00000000,80.00030519
1281,98.00000000,80.00030519
1282,98.00000000,80.00030519
1283,98.00000000,80.00030519
1284,98.00000000,80.00030519
1285,98.00000000,80.00030519
1286,98.00000000,80.00030519
1287,98.00000000,79.00007630
1288,98.00000000,79.00007630
1289,98.00000000,79.00007630
1290,98.00000000,79.00007630
1291,98.00000000,79.00007630
1292,98.00000000,79.00007630
1293,98.00000000,79.00007630
1294,98.00000000,79.00007630
1295,98.00000000,79.00007630
1296,98.00000000,80.00030519
1297,98.00000000,80.00030519
1298,98.00000000,80.00030519
1299,98.00000000,80.00030519
1300,98.00000000,81.00053407
1301,98.00000000,81.00053407
1302,98.00000000,80.00030519
1303,98.00000000,80.00030519
1304,98.00000000,80.00030519
1305,98.00000000,79.00007630
1306,98.00000000,78.00074770
1307,98.00000000,78.00074770
1308,98.00000000,78.00074770
1309,98.00000000,78.00074770
1310,98.00000000,78.00074770
1311,98.00000000,78.00074770
1312,98.00000000,78.00074770
1313,98.00000000,77.00051881
1314,99.00000000,77.00051881
1315,98.00000000,77.00051881
1316,98.00000000,77.00051881
1317,98.00000000,77.00051881
1318,98.00000000,76.00028993
1319,98.00000000,75.00006104
1320,98.00000000,75.00006104
1321,98.00000000,75.00006104
1322,97.00000000,75.00006104
1323,97.00000000,75.00006104
1324,97.00000000,75.00006104
1325,96.00000000,75.00006104
1326,97.00000000,76.00028993
1327,94.00000000,78.00074770
1328,94.00000000,78.00074770
1329,94.00000000,78.00074770
1330,94.00000000,78.00074770
1331,94.00000000,78.00074770
1332,94.00000000,78.00074770
1333,94.00000000,78.00074770
1334,93.00000000,78.00074770
1335,93.00000000,78.00074770
1336,93.00000000,78.00074770
1337,93.00000000,78.00074770
1338,93.00000000,78.00074770
1339,93.00000000,78.00074770
1340,93.00000000,78.00074770
1341,93.00000000,78.00074770
1342,93.00000000,78.00074770
1343,93.00000000,78.00074770
1344,93.00000000,79.00007630
1345,92.00000000,79.00007630
1346,93.00000000,79.00007630
1347,93.00000000,79.00007630
1348,94.00000000,81.00053407
1349,95.00000000,81.00053407
1350,95.00000000,81.00053407
1351,96.00000000,81.00053407
1352,96.00000000,80.00030519
1353,96.00000000,79.00007630
1354,97.00000000,80.00030519
1355,97.00000000,80.00030519
1356,97.00000000,82.00076296
1357,97.00000000,83.00009156
1358,97.00000000,82.00076296
1359,97.00000000,81.00053407
1360,97.00000000,79.00007630
1361,97.00000000,77.00051881
1362,97.00000000,75.00006104
1363,97.00000000,74.00073244
1364,97.00000000,74.00073244
1365,97.00000000,73.00050356
1366,97.00000000,74.00073244
1367,97.00000000,73.00050356
1368,97.00000000,74.00073244
1369,97.00000000,74.00073244
1370,97.00000000,74.00073244
1371,97.00000000,74.00073244
1372,97.00000000,73.00050356
1373,97.00000000,73.00050356
1374,97.00000000,73.00050356
1375,98.00000000,72.00027467
1376,98.00000000,72.00027467
1377,98.00000000,72.00027467
1378,98.00000000,73.00050356
1379,98.00000000,73.00050356
1380,98.00000000,73.00050356
1381,98.00000000,74.00073244
1382,98.00000000,76.00028993
1383,98.00000000,76.00028993
1384,98.00000000,77.00051881
1385,98.00000000,78.00074770
1386,97.00000000,80.00030519
1387,97.00000000,81.00053407
1388,97.00000000,82.00076296
1389,97.00000000,82.00076296
1390,97.00000000,81.00053407
1391,97.00000000,81.00053407
1392,97.00000000,79.00007630
1393,97.00000000,79.00007630
1394,97.00000000,78.00074770
1395,97.00000000,77.00051881
1396,97.00000000,76.00028993
1397,97.00000000,75.00006104
1398,97.00000000,75.00006104
1399,97.00000000,75.00006104
1400,97.00000000,75.00006104
1401,97.00000000,75.00006104
1402,97.00000000,74.00073244
1403,97.00000000,74.00073244
1404,96.00000000,74.00073244
1405,96.00000000,74.00073244
1406,96.00000000,74.00073244
1407,96.00000000,75.00006104
1408,96.00000000,76.00028993
1409,96.00000000,76.00028993
1410,96.00000000,76.00028993
1411,96.00000000,76.00028993
1412,96.00000000,76.00028993
1413,96.00000000,76.00028993
1414,96.00000000,76.00028993
1415,96.00000000,76.00028993
1416,96.00000000,76.00028993
1417,96.00000000,76.00028993
1418,96.00000000,75.00006104
1419,96.00000000,76.00028993
1420,96.00000000,76.00028993
1421,97.00000000,76.00028993
1422,97.00000000,77.00051881
1423,97.00000000,77.00051881
1424,97.00000000,77.00051881
1425,97.00000000,77.00051881
1426,97.00000000,77.00051881
1427,97.00000000,77.00051881
1428,97.00000000,77.00051881
1429,97.00000000,76.00028993
1430,96.00000000,76.00028993
1431,96.00000000,76.00028993
1432,96.00000000,76.00028993
1433,97.00000000,75.00006104
1434,97.00000000,76.00028993
1435,97.00000000,75.00006104
1436,97.00000000,75.00006104
1437,96.00000000,75.00006104
1438,96.00000000,75.00006104
1439,96.00000000,75.00006104
1440,96.00000000,74.00073244
1441,97.00000000,74.00073244
1442,97.00000000,74.00073244
1443,97.00000000,72.00027467
1444,97.00000000,72.00027467
1445,97.00000000,71.00004578
1446,97.00000000,71.00004578
1447,97.00000000,71.00004578
1448,97.00000000,71.00004578
1449,97.00000000,71.00004578
1450,97.00000000,71.00004578
1451,97.00000000,71.00004578
1452,97.00000000,71.00004578
1453,97.00000000,73.00050356
1454,97.00000000,73.00050356
1455,97.00000000,74.00073244
1456,97.00000000,73.00050356
1457,97.00000000,72.00027467
1458,97.00000000,72.00027467
1459,97.00000000,72.00027467
1460,97.00000000,73.00050356
1461,97.00000000,75.00006104
1462,97.00000000,75.00006104
1463,97.00000000,77.00051881
1464,97.00000000,78.00074770
1465,97.00000000,77.00051881
1466,97.00000000,77.00051881
1467,97.00000000,77.00051881
1468,97.00000000,77.00051881
1469,97.00000000,77.00051881
1470,97.00000000,77.00051881
1471,97.00000000,77.00051881
1472,97.00000000,76.00028993
1473,97.00000000,76.00028993
1474,97.00000000,76.00028993
1475,97.00000000,76.00028993
1476,97.00000000,76.00028993
1477,97.00000000,76.00028993
1478,97.00000000,76.00028993
1479,97.00000000,76.00028993
1480,97.00000000,76.00028993
1481,97.00000000,76.00028993
1482,97.00000000,76.00028993
1483,97.00000000,75.00006104
1484,97.00000000,75.00006104
1485,97.00000000,75.00006104
1486,97.00000000,76.00028993
1487,97.00000000,76.00028993
1488,97.00000000,76.00028993
1489,97.00000000,76.00028993
1490,97.00000000,76.00028993
1491,98.00000000,76.00028993
1492,98.00000000,75.00006104
1493,98.00000000,75.00006104
1494,98.00000000,75.00006104
1495,98.00000000,74.00073244
1496,98.00000000,74.00073244
1497,98.00000000,74.00073244
1498,98.00000000,74.00073244
1499,98.00000000,74.00073244
1500,98.00000000,75.00006104
1501,98.00000000,75.00006104
1502,98.00000000,75.00006104
1503,98.00000000,75.00006104
1504,98.00000000,75.00006104
1505,98.00000000,74.00073244
1506,98.00000000,74.00073244
1507,98.00000000,74.00073244
1508,98.00000000,74.00073244
1509,98.00000000,74.00073244
1510,98.00000000,74.00073244
1511,97.00000000,74.00073244
1512,97.00000000,75.00006104
1513,97.00000000,75.00006104
1514,97.00000000,75.00006104
1515,97.00000000,75.00006104
1516,97.00000000,75.00006104
1517,97.00000000,76.00028993
1518,97.00000000,76.00028993
1519,97.00000000,76.00028993
1520,97.00000000,76.00028993
1521,97.00000000,75.00006104
1522,97.00000000,75.00006104
1523,97.00000000,74.00073244
1524,97.00000000,74.00073244
1525,97.00000000,74.00073244
1526,97.00000000,75.00006104
1527,97.00000000,75.00006104
1528,97.00000000,75.00006104
1529,97.00000000,76.00028993
1530,97.00000000,78.00074770
1531,97.00000000,78.00074770
1532,97.00000000,79.00007630
1533,97.00000000,78.00074770
1534,97.00000000,76.00028993
1535,97.00000000,75.00006104
1536,97.00000000,74.00073244
1537,96.00000000,75.00006104
1538,96.00000000,74.00073244
1539,96.00000000,74.00073244
1540,96.00000000,74.00073244
1541,96.00000000,74.00073244
1542,97.00000000,75.00006104
1543,97.00000000,75.00006104
1544,97.00000000,76.00028993
1545,97.00000000,77.00051881
1546,97.00000000,77.00051881
1547,97.00000000,79.00007630
1548,97.00000000,79.00007630
1549,97.00000000,79.00007630
1550,97.00000000,80.00030519
1551,97.00000000,80.00030519
1552,96.00000000,80.00030519
1553,97.00000000,80.00030519
1554,97.00000000,80.00030519
1555,97.00000000,79.00007630
1556,97.00000000,79.00007630
1557,97.00000000,78.00074770
1558,97.00000000,78.00074770
1559,97.00000000,79.00007630
1560,98.00000000,79.00007630
1561,97.00000000,79.00007630
1562,97.00000000,80.00030519
1563,97.00000000,80.00030519
1564,97.00000000,81.00053407
1565,97.00000000,80.00030519
1566,97.00000000,80.00030519
1567,97.00000000,80.00030519
1568,97.00000000,80.00030519
1569,97.00000000,80.00030519
1570,98.00000000,80.00030519
1571,97.00000000,81.00053407
1572,97.00000000,82.00076296
1573,97.00000000,82.00076296
1574,98.00000000,82.00076296
1575,98.00000000,80.00030519
1576,98.00000000,78.00074770
1577,98.00000000,77.00051881
1578,98.00000000,76.00028993
1579,97.00000000,75.00006104
1580,97.00000000,75.00006104
1581,97.00000000,75.00006104
1582,97.00000000,74.00073244
1583,97.00000000,74.00073244
1584,98.00000000,74.00073244
1585,98.00000000,74.00073244
1586,98.00000000,74.00073244
1587,98.00000000,74.00073244
1588,98.00000000,74.00073244
1589,98.00000000,74.00073244
1590,98.00000000,76.00028993
1591,98.00000000,76.00028993
1592,98.00000000,77.00051881
1593,98.00000000,78.00074770
1594,98.00000000,79.00007630
1595,98.00000000,79.00007630
1596,98.00000000,79.00007630
1597,98.00000000,78.00074770
1598,98.00000000,77.00051881
1599,98.00000000,76.00028993
1600,98.00000000,76.00028993
1601,98.00000000,75.00006104
1602,98.00000000,73.00050356
1603,98.00000000,73.00050356
1604,98.00000000,72.00027467
1605,98.00000000,72.00027467
1606,98.00000000,71.00004578
1607,98.00000000,71.00004578
1608,98.00000000,71.00004578
1609,98.00000000,71.00004578
1610,98.00000000,71.00004578
1611,98.00000000,71.00004578
1612,98.00000000,71.00004578
1613,98.00000000,71.00004578
1614,98.00000000,71.00004578
1615,98.00000000,71.00004578
1616,98.00000000,72.00027467
1617,98.00000000,72.00027467
1618,98.00000000,73.00050356
1619,98.00000000,73.00050356
1620,98.00000000,73.00050356
1621,98.00000000,73.00050356
1622,98.00000000,73.00050356
1623,98.00000000,73.00050356
1624,98.00000000,72.00027467
1625,98.00000000,71.00004578
1626,98.00000000,71.00004578
1627,98.00000000,71.00004578
1628,98.00000000,71.00004578
1629,98.00000000,71.00004578
1630,98.00000000,71.00004578
1631,98.00000000,71.00004578
1632,98.00000000,71.00004578
1633,98.00000000,71.00004578
1634,98.00000000,71.00004578
1635,98.00000000,71.00004578
1636,98.00000000,71.00004578
1637,98.00000000,71.00004578
1638,98.00000000,71.00004578
1639,98.00000000,71.00004578
1640,98.00000000,71.00004578
1641,98.00000000,71.00004578
1642,98.00000000,71.00004578
1643,98.00000000,71.00004578
1644,98.00000000,71.00004578
1645,98.00000000,71.00004578
1646,99.00000000,70.00071719
1647,98.00000000,69.00048830
1648,99.00000000,68.00025941
1649,98.00000000,68.00025941
1650,98.00000000,68.00025941
1651,98.00000000,68.00025941
1652,98.00000000,68.00025941
1653,98.00000000,68.00025941
1654,98.00000000,68.00025941
1655,98.00000000,68.00025941
1656,99.00000000,68.00025941
1657,99.00000000,68.00025941
1658,99.00000000,68.00025941
1659,99.00000000,67.00003052
1660,98.00000000,67.00003052
1661,98.00000000,67.00003052
1662,98.00000000,67.00003052
1663,98.00000000,67.00003052
1664,98.00000000,67.00003052
1665,98.00000000,67.00003052
1666,98.00000000,67.00003052
1667,98.00000000,67.00003052
1668,98.00000000,67.00003052
1669,98.00000000,67.00003052
1670,98.00000000,68.00025941
1671,98.00000000,70.00071719
1672,98.00000000,74.00073244
1673,98.00000000,74.00073244
1674,98.00000000,75.00006104
1675,98.00000000,76.00028993
1676,98.00000000,76.00028993
1677,98.00000000,76.00028993
1678,98.00000000,76.00028993
1679,98.00000000,76.00028993
1680,98.00000000,76.00028993
1681,97.00000000,76.00028993
1682,97.00000000,76.00028993
1683,97.00000000,76.00028993
1684,97.00000000,76.00028993
1685,97.00000000,76.00028993
1686,97.00000000,76.00028993
1687,97.00000000,76.00028993
1688,98.00000000,76.00028993
1689,98.00000000,76.00028993
1690,98.00000000,77.00051881
1691,98.00000000,76.00028993
1692,98.00000000,75.00006104
1693,98.00000000,74.00073244
1694,98.00000000,74.00073244
1695,98.00000000,73.00050356
1696,98.00000000,72.00027467
1697,98.00000000,71.00004578
1698,98.00000000,71.00004578
1699,98.00000000,71.00004578
1700,98.00000000,71.00004578
1701,98.00000000,71.00004578
1702,98.00000000,71.00004578
1703,98.00000000,71.00004578
1704,98.00000000,71.00004578
1705,98.00000000,70.00071719
1706,98.00000000,70.00071719
1707,98.00000000,70.00071719
1708,98.00000000,70.00071719
1709,98.00000000,70.00071719
1710,98.00000000,70.00071719
1711,98.00000000,74.00073244
1712,98.00000000,74.00073244
1713,98.00000000,74.00073244
1714,98.00000000,75.00006104
1715,98.00000000,74.00073244
1716,98.00000000,73.00050356
1717,98.00000000,73.00050356
1718,98.00000000,72.00027467
1719,98.00000000,72.00027467
1720,98.00000000,72.00027467
1721,98.00000000,73.00050356
1722,98.00000000,73.00050356
1723,98.00000000,73.00050356
1724,98.00000000,73.00050356
1725,98.00000000,73.00050356
1726,98.00000000,72.00027467
1727,98.00000000,71.00004578
1728,98.00000000,71.00004578
1729,98.00000000,70.00071719
1730,98.00000000,69.00048830
1731,98.00000000,69.00048830
1732,98.00000000,68.00025941
1733,98.00000000,68.00025941
1734,98.00000000,67.00003052
1735,98.00000000,67.00003052
1736,98.00000000,67.00003052
1737,98.00000000,67.00003052
1738,98.00000000,67.00003052
1739,98.00000000,67.00003052
1740,98.00000000,68.00025941
1741,98.00000000,68.00025941
1742,97.00000000,69.00048830
1743,97.00000000,69.00048830
1744,97.00000000,69.00048830
1745,97.00000000,70.00071719
1746,97.00000000,70.00071719
1747,97.00000000,71.00004578
1748,97.00000000,71.00004578
1749,97.00000000,71.00004578
1750,97.00000000,71.00004578
1751,97.00000000,72.00027467
1752,97.00000000,72.00027467
1753,97.00000000,72.00027467
1754,97.00000000,72.00027467
1755,97.00000000,72.00027467
1756,97.00000000,71.00004578
1757,97.00000000,72.00027467
1758,97.00000000,71.00004578
1759,97.00000000,71.00004578
1760,97.00000000,72.00027467
1761,97.00000000,73.00050356
1762,97.00000000,72.00027467
1763,97.00000000,72.00027467
1764,97.00000000,73.00050356
1765,98.00000000,73.00050356
1766,98.00000000,73.00050356
1767,98.00000000,73.00050356
1768,98.00000000,72.00027467
1769,98.00000000,72.00027467
1770,98.00000000,72.00027467
1771,98.00000000,72.00027467
1772,98.00000000,71.00004578
1773,98.00000000,71.00004578
1774,98.00000000,70.00071719
1775,98.00000000,70.00071719
1776,98.00000000,71.00004578
1777,98.00000000,71.00004578
1778,98.00000000,71.00004578
1779,98.00000000,71.00004578
1780,98.00000000,71.00004578
1781,98.00000000,71.00004578
1782,98.00000000,71.00004578
1783,98.00000000,71.00004578
1784,98.00000000,70.00071719
1785,98.00000000,70.00071719
1786,98.00000000,70.00071719
1787,98.00000000,70.00071719
1788,98.00000000,70.00071719
1789,98.00000000,70.00071719
1790,98.00000000,70.00071719
1791,98.00000000,69.00048830
1792,98.00000000,69.00048830
1793,98.00000000,69.00048830
1794,98.00000000,70.00071719
1795,98.00000000,69.00048830
1796,98.00000000,70.00071719
1797,98.00000000,70.00071719
1798,97.00000000,70.00071719
1799,97.00000000,70.00071719
1800,97.00000000,70.00071719
1801,97.00000000,70.00071719
1802,98.00000000,70.00071719
1803,98.00000000,71.00004578
1804,98.00000000,70.00071719
1805,98.00000000,70.00071719
1806,98.00000000,70.00071719
1807,98.00000000,70.00071719
1808,98.00000000,70.00071719
1809,98.00000000,71.00004578
1810,98.00000000,71.00004578
1811,98.00000000,71.00004578
1812,98.00000000,70.00071719
1813,98.00000000,70.00071719
1814,98.00000000,70.00071719
1815,98.00000000,70.00071719
1816,98.00000000,70.00071719
1817,98.00000000,70.00071719
1818,98.00000000,70.00071719
1819,98.00000000,70.00071719
1820,98.00000000,70.00071719
1821,98.00000000,70.00071719
1822,98.00000000,69.00048830
1823,98.00000000,69.00048830
1824,98.00000000,69.00048830
1825,98.00000000,69.00048830
1826,98.00000000,69.00048830
1827,98.00000000,69.00048830
1828,98.00000000,69.00048830
1829,98.00000000,69.00048830
1830,98.00000000,70.00071719
1831,98.00000000,69.00048830
1832,98.00000000,69.00048830
1833,98.00000000,69.00048830
1834,98.00000000,69.00048830
1835,98.00000000,69.00048830
1836,98.00000000,69.00048830
1837,98.00000000,70.00071719
1838,98.00000000,70.00071719
1839,98.00000000,70.00071719
1840,98.00000000,70.00071719
1841,98.00000000,70.00071719
1842,98.00000000,71.00004578
1843,98.00000000,71.00004578
1844,98.00000000,71.00004578
1845,98.00000000,71.00004578
1846,98.00000000,71.00004578
1847,98.00000000,72.00027467
1848,98.00000000,72.00027467
1849,98.00000000,72.00027467
1850,98.00000000,72.00027467
1851,98.00000000,73.00050356
1852,98.00000000,73.00050356
1853,98.00000000,73.00050356
1854,98.00000000,73.00050356
1855,98.00000000,73.00050356
1856,98.00000000,72.00027467
1857,98.00000000,72.00027467
1858,98.00000000,72.00027467
1859,98.00000000,71.00004578
1860,98.00000000,71.00004578
1861,98.00000000,71.00004578
1862,98.00000000,71.00004578
1863,98.00000000,71.00004578
1864,98.00000000,70.00071719
1865,98.00000000,70.00071719
1866,98.00000000,70.00071719
1867,98.00000000,71.00004578
1868,98.00000000,71.00004578
1869,98.00000000,71.00004578
1870,98.00000000,71.00004578
1871,98.00000000,71.00004578
1872,98.00000000,71.00004578
1873,98.00000000,72.00027467
1874,98.00000000,72.00027467
1875,98.00000000,72.00027467
1876,98.00000000,72.00027467
1877,98.00000000,73.00050356
1878,98.00000000,72.00027467
1879,98.00000000,72.00027467
1880,98.00000000,72.00027467
1881,98.00000000,72.00027467
1882,98.00000000,73.00050356
1883,98.00000000,73.00050356
1884,98.00000000,73.00050356
1885,98.00000000,73.00050356
1886,98.00000000,72.00027467
1887,98.00000000,72.00027467
1888,98.00000000,72.00027467
1889,98.00000000,71.00004578
1890,98.00000000,71.00004578
1891,98.00000000,71.00004578
1892,98.00000000,71.00004578
1893,98.00000000,71.00004578
1894,98.00000000,71.00004578
1895,98.00000000,72.00027467
1896,98.00000000,76.00028993
1897,98.00000000,79.00007630
1898,98.00000000,81.00053407
1899,98.00000000,83.00009156
1900,98.00000000,82.00076296
1901,98.00000000,82.00076296
1902,98.00000000,81.00053407
1903,98.00000000,78.00074770
1904,98.00000000,75.00006104
1905,98.00000000,74.00073244
1906,98.00000000,73.00050356
1907,98.00000000,72.00027467
1908,98.00000000,71.00004578
1909,98.00000000,71.00004578
1910,98.00000000,70.00071719
1911,98.00000000,70.00071719
1912,98.00000000,70.00071719
1913,98.00000000,70.00071719
1914,98.00000000,70.00071719
1915,98.00000000,70.00071719
1916,98.00000000,71.00004578
1917,98.00000000,71.00004578
1918,98.00000000,70.00071719
1919,98.00000000,70.00071719
1920,98.00000000,69.00048830
1921,98.00000000,69.00048830
1922,98.00000000,68.00025941
1923,98.00000000,68.00025941
1924,98.00000000,68.00025941
1925,98.00000000,68.00025941
1926,98.00000000,68.00025941
1927,98.00000000,69.00048830
1928,98.00000000,69.00048830
1929,98.00000000,69.00048830
1930,98.00000000,69.00048830
1931,98.00000000,69.00048830
1932,98.00000000,68.00025941
1933,98.00000000,68.00025941
1934,98.00000000,68.00025941
1935,98.00000000,68.00025941
1936,98.00000000,69.00048830
1937,98.00000000,69.00048830
1938,98.00000000,69.00048830
1939,98.00000000,69.00048830
1940,98.00000000,70.00071719
1941,98.00000000,70.00071719
1942,98.00000000,71.00004578
1943,98.00000000,71.00004578
1944,98.00000000,71.00004578
1945,98.00000000,71.00004578
1946,98.00000000,71.00004578
1947,98.00000000,71.00004578
1948,98.00000000,71.00004578
1949,98.00000000,71.00004578
1950,98.00000000,71.00004578
1951,98.00000000,71.00004578
1952,98.00000000,71.00004578
1953,98.00000000,71.00004578
1954,98.00000000,71.00004578
1955,98.00000000,71.00004578
1956,98.00000000,71.00004578
1957,98.00000000,71.00004578
1958,98.00000000,71.00004578
1959,98.00000000,72.00027467
1960,98.00000000,72.00027467
1961,98.00000000,72.00027467
1962,98.00000000,72.00027467
1963,98.00000000,72.00027467
1964,98.00000000,72.00027467
1965,98.00000000,72.00027467
1966,98.00000000,71.00004578
1967,98.00000000,71.00004578
1968,98.00000000,71.00004578
1969,98.00000000,71.00004578
1970,98.00000000,71.00004578
1971,98.00000000,71.00004578
1972,98.00000000,71.00004578
1973,98.00000000,71.00004578
1974,97.00000000,71.00004578
1975,97.00000000,71.00004578
1976,98.00000000,71.00004578
1977,98.00000000,71.00004578
1978,98.00000000,71.00004578
1979,98.00000000,71.00004578
1980,98.00000000,71.00004578
1981,98.00000000,71.00004578
1982,98.00000000,71.00004578
1983,98.00000000,71.00004578
1984,98.00000000,71.00004578
1985,98.00000000,71.00004578
1986,98.00000000,79.00007630
1987,98.00000000,79.00007630
1988,98.00000000,79.00007630
1989,98.00000000,79.00007630
1990,98.00000000,79.00007630
1991,98.00000000,79.00007630
1992,98.00000000,79.00007630
1993,98.00000000,79.00007630
1994,98.00000000,79.00007630
1995,97.00000000,82.00076296
1996,97.00000000,84.00032044
1997,98.00000000,84.00032044
1998,98.00000000,87.00010681
1999,98.00000000,88.00033570
2000,98.00000000,90.00079348
2001,98.00000000,89.00056459
2002,98.00000000,87.00010681
2003,98.00000000,85.00054933
2004,98.00000000,84.00032044
2005,98.00000000,84.00032044
2006,98.00000000,82.00076296
2007,98.00000000,81.00053407
2008,98.00000000,80.00030519
2009,98.00000000,79.00007630
2010,98.00000000,79.00007630
2011,98.00000000,79.00007630
2012,98.00000000,78.00074770
2013,98.00000000,78.00074770
2014,98.00000000,78.00074770
2015,98.00000000,78.00074770
2016,98.00000000,78.00074770
2017,98.00000000,78.00074770
2018,98.00000000,78.00074770
2019,98.00000000,77.00051881
2020,98.00000000,77.00051881
2021,98.00000000,76.00028993
2022,98.00000000,76.00028993
2023,98.00000000,76.00028993
2024,98.00000000,76.00028993
2025,98.00000000,75.00006104
2026,98.00000000,75.00006104
2027,98.00000000,75.00006104
2028,98.00000000,75.00006104
2029,98.00000000,75.00006104
2030,98.00000000,77.00051881
2031,97.00000000,77.00051881
2032,97.00000000,77.00051881
2033,97.00000000,77.00051881
2034,97.00000000,77.00051881
2035,97.00000000,77.00051881
2036,97.00000000,78.00074770
2037,97.00000000,77.00051881
2038,97.00000000,76.00028993
2039,97.00000000,75.00006104
2040,97.00000000,74.00073244
2041,97.00000000,74.00073244
2042,96.00000000,73.00050356
2043,96.00000000,74.00073244
2044,97.00000000,73.00050356
2045,97.00000000,74.00073244
2046,97.00000000,74.00073244
2047,97.00000000,75.00006104
2048,97.00000000,74.00073244
2049,97.00000000,74.00073244
2050,97.00000000,74.00073244
2051,97.00000000,74.00073244
2052,98.00000000,73.00050356
2053,98.00000000,73.00050356
2054,98.00000000,73.00050356
2055,98.00000000,73.00050356
2056,98.00000000,73.00050356
2057,98.00000000,73.00050356
2058,98.00000000,73.00050356
2059,98.00000000,73.00050356
2060,98.00000000,73.00050356
2061,98.00000000,73.00050356
2062,98.00000000,74.00073244
2063,98.00000000,73.00050356
2064,98.00000000,72.00027467
2065,98.00000000,72.00027467
2066,98.00000000,72.00027467
2067,98.00000000,72.00027467
2068,98.00000000,72.00027467
2069,98.00000000,72.00027467
2070,98.00000000,71.00004578
2071,98.00000000,71.00004578
2072,98.00000000,70.00071719
2073,98.00000000,69.00048830
2074,98.00000000,69.00048830
2075,98.00000000,69.00048830
2076,98.00000000,69.00048830
2077,98.00000000,69.00048830
2078,98.00000000,69.00048830
2079,98.00000000,69.00048830
2080,98.00000000,69.00048830
2081,98.00000000,69.00048830
2082,98.00000000,69.00048830
2083,98.00000000,70.00071719
2084,98.00000000,70.00071719
2085,98.00000000,70.00071719
2086,98.00000000,70.00071719
2087,98.00000000,70.00071719
2088,98.00000000,70.00071719
2089,98.00000000,70.00071719
2090,98.00000000,70.00071719
2091,98.00000000,70.00071719
2092,98.00000000,69.00048830
2093,98.00000000,69.00048830
2094,98.00000000,69.00048830
2095,98.00000000,68.00025941
2096,98.00000000,68.00025941
2097,98.00000000,68.00025941
2098,98.00000000,68.00025941
2099,98.00000000,68.00025941
2100,98.00000000,67.00003052
2101,98.00000000,67.00003052
2102,98.00000000,67.00003052
2103,98.00000000,67.00003052
2104,98.00000000,67.00003052
2105,98.00000000,66.00070193
2106,98.00000000,66.00070193
2107,98.00000000,67.00003052
2108,98.00000000,67.00003052
2109,98.00000000,68.00025941
2110,98.00000000,68.00025941
2111,98.00000000,68.00025941
2112,98.00000000,69.00048830
2113,98.00000000,69.00048830
2114,98.00000000,69.00048830
2115,98.00000000,69.00048830
2116,98.00000000,69.00048830
2117,98.00000000,69.00048830
2118,98.00000000,69.00048830
2119,98.00000000,69.00048830
2120,98.00000000,68.00025941
2121,98.00000000,69.00048830
2122,98.00000000,68.00025941
2123,98.00000000,68.00025941
2124,98.00000000,68.00025941
2125,98.00000000,68.00025941
2126,98.00000000,68.00025941
2127,98.00000000,68.00025941
2128,98.00000000,68.00025941
2129,98.00000000,68.00025941
2130,98.00000000,68.00025941
2131,98.00000000,69.00048830
2132,98.00000000,69.00048830
2133,98.00000000,69.00048830
2134,98.00000000,69.00048830
2135,98.00000000,69.00048830
2136,98.00000000,69.00048830
2137,98.00000000,69.00048830
2138,98.00000000,70.00071719
2139,98.00000000,70.00071719
2140,98.00000000,70.00071719
2141,99.00000000,70.00071719
2142,98.00000000,70.00071719
2143,98.00000000,70.00071719
2144,98.00000000,70.00071719
2145,98.00000000,70.00071719
2146,98.00000000,70.00071719
2147,98.00000000,70.00071719
2148,98.00000000,70.00071719
2149,98.00000000,70.00071719
2150,98.00000000,70.00071719
2151,98.00000000,70.00071719
2152,98.00000000,70.00071719
2153,98.00000000,70.00071719
2154,98.00000000,70.00071719
2155,98.00000000,70.00071719
2156,98.00000000,70.00071719
2157,98.00000000,70.00071719
2158,98.00000000,70.00071719
2159,98.00000000,70.00071719
2160,98.00000000,70.00071719
2161,98.00000000,70.00071719
2162,98.00000000,70.00071719
2163,98.00000000,71.00004578
2164,98.00000000,71.00004578
2165,98.00000000,72.00027467
2166,98.00000000,71.00004578
2167,98.00000000,71.00004578
2168,98.00000000,71.00004578
2169,98.00000000,71.00004578
2170,98.00000000,71.00004578
2171,98.00000000,71.00004578
2172,98.00000000,71.00004578
2173,98.00000000,71.00004578
2174,98.00000000,71.00004578
2175,98.00000000,71.00004578
2176,98.00000000,72.00027467
2177,98.00000000,72.00027467
2178,98.00000000,73.00050356
2179,98.00000000,73.00050356
2180,98.00000000,73.00050356
2181,98.00000000,72.00027467
2182,98.00000000,72.00027467
2183,98.00000000,72.00027467
2184,98.00000000,73.00050356
2185,98.00000000,73.00050356
2186,98.00000000,73.00050356
2187,98.00000000,74.00073244
2188,98.00000000,74.00073244
2189,98.00000000,74.00073244
2190,98.00000000,74.00073244
2191,98.00000000,75.00006104
2192,98.00000000,74.00073244
2193,98.00000000,75.00006104
2194,98.00000000,75.00006104
2195,98.00000000,75.00006104
2196,98.00000000,75.00006104
2197,98.00000000,75.00006104
2198,98.00000000,76.00028993
2199,98.00000000,76.00028993
2200,98.00000000,77.00051881
2201,98.00000000,77.00051881
2202,98.00000000,76.00028993
2203,98.00000000,76.00028993
2204,98.00000000,76.00028993
2205,98.00000000,79.00007630
2206,98.00000000,81.00053407
2207,98.00000000,81.00053407
2208,98.00000000,82.00076296
2209,98.00000000,81.00053407
2210,98.00000000,81.00053407
2211,98.00000000,80.00030519
2212,98.00000000,78.00074770
2213,98.00000000,78.00074770
2214,98.00000000,77.00051881
2215,98.00000000,77.00051881
2216,98.00000000,76.00028993
2217,98.00000000,76.00028993
2218,98.00000000,76.00028993
2219,98.00000000,75.00006104
2220,98.00000000,76.00028993
2221,98.00000000,76.00028993
2222,98.00000000,75.00006104
2223,98.00000000,75.00006104
2224,98.00000000,76.00028993
2225,98.00000000,75.00006104
2226,98.00000000,75.00006104
2227,98.00000000,75.00006104
2228,98.00000000,75.00006104
2229,98.00000000,75.00006104
2230,98.00000000,75.00006104
2231,98.00000000,75.00006104
2232,98.00000000,74.00073244
2233,98.00000000,74.00073244
2234,98.00000000,74.00073244
2235,98.00000000,74.00073244
2236,98.00000000,74.00073244
2237,98.00000000,74.00073244
2238,98.00000000,74.00073244
2239,98.00000000,74.00073244
2240,98.00000000,74.00073244
2241,98.00000000,74.00073244
2242,98.00000000,74.00073244
2243,98.00000000,74.00073244
2244,98.00000000,74.00073244
2245,98.00000000,74.00073244
2246,98.00000000,74.00073244
2247,98.00000000,73.00050356
2248,98.00000000,73.00050356
2249,98.00000000,73.00050356
2250,98.00000000,73.00050356
2251,98.00000000,76.00028993
2252,98.00000000,76.00028993
2253,98.00000000,76.00028993
2254,99.00000000,76.00028993
2255,98.00000000,78.00074770
2256,99.00000000,78.00074770
2257,98.00000000,76.00028993
2258,98.00000000,75.00006104
2259,98.00000000,74.00073244
2260,98.00000000,73.00050356
2261,98.00000000,72.00027467
2262,98.00000000,72.00027467
2263,98.00000000,71.00004578
2264,98.00000000,71.00004578
2265,98.00000000,71.00004578
2266,98.00000000,71.00004578
2267,98.00000000,71.00004578
2268,98.00000000,71.00004578
2269,98.00000000,71.00004578
2270,98.00000000,71.00004578
2271,98.00000000,71.00004578
2272,98.00000000,71.00004578
2273,98.00000000,72.00027467
2274,98.00000000,72.00027467
2275,98.00000000,73.00050356
2276,98.00000000,73.00050356
2277,98.00000000,73.00050356
2278,98.00000000,72.00027467
2279,98.00000000,72.00027467
2280,98.00000000,71.00004578
2281,98.00000000,71.00004578
2282,98.00000000,71.00004578
2283,98.00000000,71.00004578
2284,98.00000000,71.00004578
2285,98.00000000,70.00071719
