'sample interval','SpO2','hr'
'1 sec','%','bpm'
0,94.00000000,72.00003052
1,95.00000000,73.00042726
2,94.00000000,72.00003052
3,94.00000000,68.00012207
4,94.00000000,66.00016785
5,94.00000000,66.00016785
6,94.00000000,66.00016785
7,94.00000000,66.00016785
8,94.00000000,67.00056459
9,94.00000000,66.00016785
10,94.00000000,66.00016785
11,94.00000000,66.00016785
12,94.00000000,65.00061037
13,94.00000000,64.00021363
14,93.00000000,64.00021363
15,93.00000000,63.00065615
16,93.00000000,63.00065615
17,93.00000000,63.00065615
18,93.00000000,63.00065615
19,93.00000000,64.00021363
20,93.00000000,65.00061037
21,93.00000000,67.00056459
22,93.00000000,67.00056459
23,93.00000000,67.00056459
24,93.00000000,66.00016785
25,93.00000000,63.00065615
26,93.00000000,62.00025941
27,93.00000000,60.00030518
28,93.00000000,60.00030518
29,93.00000000,59.00074770
30,93.00000000,59.00074770
31,93.00000000,59.00074770
32,94.00000000,60.00030518
33,94.00000000,60.00030518
34,94.00000000,60.00030518
35,94.00000000,60.00030518
36,95.00000000,58.00035096
37,95.00000000,58.00035096
38,95.00000000,57.00079348
39,94.00000000,56.00039674
40,94.00000000,55.00000000
41,94.00000000,55.00000000
42,94.00000000,55.00000000
43,94.00000000,54.00044252
44,94.00000000,54.00044252
45,94.00000000,54.00044252
46,94.00000000,55.00000000
47,93.00000000,56.00039674
48,93.00000000,56.00039674
49,93.00000000,56.00039674
50,93.00000000,56.00039674
51,93.00000000,58.00035096
52,93.00000000,58.00035096
53,92.00000000,58.00035096
54,92.00000000,58.00035096
55,92.00000000,58.00035096
56,92.00000000,58.00035096
57,92.00000000,57.00079348
58,93.00000000,57.00079348
59,93.00000000,58.00035096
60,93.00000000,58.00035096
61,93.00000000,58.00035096
62,93.00000000,58.00035096
63,93.00000000,58.00035096
64,93.00000000,58.00035096
65,93.00000000,58.00035096
66,93.00000000,59.00074770
67,93.00000000,59.00074770
68,92.00000000,60.00030518
69,92.00000000,58.00035096
70,92.00000000,58.00035096
71,92.00000000,57.00079348
72,92.00000000,57.00079348
73,92.00000000,56.00039674
74,92.00000000,56.00039674
75,92.00000000,56.00039674
76,92.00000000,56.00039674
77,92.00000000,56.00039674
78,93.00000000,56.00039674
79,93.00000000,56.00039674
80,93.00000000,57.00079348
81,93.00000000,59.00074770
82,93.00000000,59.00074770
83,93.00000000,60.00030518
84,93.00000000,60.00030518
85,93.00000000,60.00030518
86,93.00000000,58.00035096
87,93.00000000,56.00039674
88,92.00000000,55.00000000
89,92.00000000,55.00000000
90,92.00000000,55.00000000
91,93.00000000,55.00000000
92,93.00000000,57.00079348
93,93.00000000,60.00030518
94,93.00000000,65.00061037
95,93.00000000,68.00012207
96,92.00000000,68.00012207
97,92.00000000,67.00056459
98,92.00000000,65.00061037
99,92.00000000,63.00065615
100,92.00000000,62.00025941
101,92.00000000,60.00030518
102,93.00000000,60.00030518
103,93.00000000,58.00035096
104,93.00000000,58.00035096
105,93.00000000,56.00039674
106,94.00000000,56.00039674
107,94.00000000,56.00039674
108,94.00000000,57.00079348
109,94.00000000,57.00079348
110,94.00000000,58.00035096
111,94.00000000,57.00079348
112,94.00000000,56.00039674
113,94.00000000,55.00000000
114,94.00000000,54.00044252
115,94.00000000,53.00004578
116,94.00000000,53.00004578
117,94.00000000,55.00000000
118,94.00000000,55.00000000
119,94.00000000,56.00039674
120,94.00000000,56.00039674
121,94.00000000,57.00079348
122,94.00000000,58.00035096
123,94.00000000,58.00035096
124,94.00000000,58.00035096
125,94.00000000,58.00035096
126,93.00000000,56.00039674
127,93.00000000,55.00000000
128,93.00000000,54.00044252
129,93.00000000,54.00044252
130,93.00000000,54.00044252
131,93.00000000,54.00044252
132,94.00000000,55.00000000
133,94.00000000,56.00039674
134,94.00000000,57.00079348
135,94.00000000,58.00035096
136,93.00000000,61.00070193
137,93.00000000,61.00070193
138,93.00000000,62.00025941
139,93.00000000,63.00065615
140,93.00000000,64.00021363
141,93.00000000,62.00025941
142,93.00000000,60.00030518
143,93.00000000,58.00035096
144,92.00000000,57.00079348
145,92.00000000,56.00039674
146,92.00000000,56.00039674
147,93.00000000,56.00039674
148,93.00000000,57.00079348
149,93.00000000,59.00074770
150,93.00000000,59.00074770
151,93.00000000,61.00070193
152,93.00000000,59.00074770
153,93.00000000,59.00074770
154,93.00000000,58.00035096
155,93.00000000,57.00079348
156,93.00000000,56.00039674
157,93.00000000,56.00039674
158,93.00000000,57.00079348
159,93.00000000,57.00079348
160,94.00000000,57.00079348
161,94.00000000,57.00079348
162,94.00000000,58.00035096
163,94.00000000,60.00030518
164,94.00000000,61.00070193
165,94.00000000,62.00025941
166,94.00000000,65.00061037
167,94.00000000,65.00061037
168,94.00000000,66.00016785
169,94.00000000,66.00016785
170,93.00000000,67.00056459
171,93.00000000,67.00056459
172,93.00000000,67.00056459
173,93.00000000,69.00051881
174,93.00000000,69.00051881
175,93.00000000,69.00051881
176,94.00000000,69.00051881
177,94.00000000,67.00056459
178,94.00000000,67.00056459
179,94.00000000,65.00061037
180,94.00000000,63.00065615
181,94.00000000,62.00025941
182,94.00000000,62.00025941
183,94.00000000,62.00025941
184,94.00000000,61.00070193
185,94.00000000,60.00030518
186,94.00000000,60.00030518
187,95.00000000,59.00074770
188,96.00000000,59.00074770
189,96.00000000,57.00079348
190,96.00000000,57.00079348
191,96.00000000,57.00079348
192,96.00000000,59.00074770
193,96.00000000,59.00074770
194,96.00000000,60.00030518
195,96.00000000,60.00030518
196,96.00000000,58.00035096
197,96.00000000,57.00079348
198,95.00000000,56.00039674
199,95.00000000,56.00039674
200,95.00000000,56.00039674
201,95.00000000,56.00039674
202,95.00000000,56.00039674
203,95.00000000,59.00074770
204,95.00000000,58.00035096
205,95.00000000,60.00030518
206,95.00000000,58.00035096
207,95.00000000,56.00039674
208,95.00000000,56.00039674
209,95.00000000,55.00000000
210,95.00000000,54.00044252
211,95.00000000,53.00004578
212,95.00000000,53.00004578
213,95.00000000,53.00004578
214,95.00000000,54.00044252
215,95.00000000,54.00044252
216,95.00000000,54.00044252
217,96.00000000,55.00000000
218,96.00000000,56.00039674
219,96.00000000,57.00079348
220,96.00000000,58.00035096
221,96.00000000,59.00074770
222,96.00000000,60.00030518
223,96.00000000,61.00070193
224,96.00000000,62.00025941
225,96.00000000,63.00065615
226,95.00000000,61.00070193
227,95.00000000,60.00030518
228,95.00000000,58.00035096
229,95.00000000,59.00074770
230,95.00000000,60.00030518
231,95.00000000,60.00030518
232,95.00000000,60.00030518
233,95.00000000,60.00030518
234,95.00000000,59.00074770
235,95.00000000,59.00074770
236,95.00000000,59.00074770
237,95.00000000,59.00074770
238,95.00000000,58.00035096
239,95.00000000,58.00035096
240,95.00000000,58.00035096
241,95.00000000,58.00035096
242,95.00000000,57.00079348
243,95.00000000,58.00035096
244,95.00000000,58.00035096
245,95.00000000,58.00035096
246,95.00000000,57.00079348
247,94.00000000,57.00079348
248,94.00000000,57.00079348
249,94.00000000,57.00079348
250,94.00000000,57.00079348
251,94.00000000,57.00079348
252,94.00000000,57.00079348
253,94.00000000,57.00079348
254,93.00000000,57.00079348
255,93.00000000,57.00079348
256,93.00000000,58.00035096
257,93.00000000,60.00030518
258,92.00000000,65.00061037
259,92.00000000,65.00061037
260,92.00000000,66.00016785
261,92.00000000,67.00056459
262,91.00000000,66.00016785
263,91.00000000,64.00021363
264,91.00000000,63.00065615
265,91.00000000,62.00025941
266,91.00000000,62.00025941
267,91.00000000,61.00070193
268,92.00000000,61.00070193
269,93.00000000,62.00025941
270,93.00000000,63.00065615
271,93.00000000,63.00065615
272,94.00000000,64.00021363
273,94.00000000,64.00021363
274,94.00000000,63.00065615
275,94.00000000,63.00065615
276,94.00000000,62.00025941
277,94.00000000,62.00025941
278,94.00000000,62.00025941
279,94.00000000,63.00065615
280,94.00000000,64.00021363
281,94.00000000,66.00016785
282,94.00000000,68.00012207
283,94.00000000,68.00012207
284,94.00000000,68.00012207
285,94.00000000,68.00012207
286,94.00000000,67.00056459
287,94.00000000,66.00016785
288,94.00000000,64.00021363
289,94.00000000,63.00065615
290,94.00000000,63.00065615
291,94.00000000,63.00065615
292,94.00000000,66.00016785
293,94.00000000,66.00016785
294,94.00000000,68.00012207
295,94.00000000,68.00012207
296,94.00000000,68.00012207
297,93.00000000,67.00056459
298,93.00000000,66.00016785
299,93.00000000,66.00016785
300,93.00000000,64.00021363
301,94.00000000,62.00025941
302,94.00000000,62.00025941
303,94.00000000,61.00070193
304,94.00000000,78.00073244
305,94.00000000,78.00073244
306,94.00000000,77.00033570
307,94.00000000,77.00033570
308,94.00000000,81.99980163
309,94.00000000,84.99931333
310,94.00000000,87.99966430
311,94.00000000,87.99966430
312,94.00000000,91.99957274
313,94.00000000,91.99957274
314,94.00000000,91.99957274
315,94.00000000,87.99966430
316,94.00000000,82.99935911
317,94.00000000,77.00033570
318,94.00000000,75.00038148
319,94.00000000,73.00042726
320,94.00000000,72.00003052
321,94.00000000,71.00047304
322,95.00000000,69.00051881
323,95.00000000,68.00012207
324,95.00000000,67.00056459
325,95.00000000,66.00016785
326,95.00000000,66.00016785
327,95.00000000,67.00056459
328,95.00000000,73.00042726
329,95.00000000,73.00042726
330,95.00000000,80.99940489
331,94.00000000,80.99940489
332,94.00000000,82.99935911
333,94.00000000,83.99975585
334,94.00000000,80.99940489
335,94.00000000,80.99940489
336,93.00000000,79.00028993
337,93.00000000,80.00068667
338,93.00000000,82.99935911
339,93.00000000,82.99935911
340,94.00000000,85.99971007
341,94.00000000,84.99931333
342,94.00000000,83.99975585
343,95.00000000,82.99935911
344,94.00000000,80.99940489
345,94.00000000,80.99940489
346,94.00000000,82.99935911
347,94.00000000,82.99935911
348,94.00000000,83.99975585
349,94.00000000,84.99931333
350,94.00000000,85.99971007
351,94.00000000,87.99966430
352,95.00000000,87.99966430
353,95.00000000,88.99922178
354,95.00000000,88.99922178
355,95.00000000,87.99966430
356,95.00000000,86.99926756
357,95.00000000,85.99971007
358,94.00000000,84.99931333
359,94.00000000,84.99931333
360,95.00000000,83.99975585
361,94.00000000,84.99931333
362,94.00000000,87.99966430
363,94.00000000,87.99966430
364,94.00000000,89.99961852
365,94.00000000,91.99957274
366,94.00000000,91.99957274
367,94.00000000,91.99957274
368,94.00000000,91.99957274
369,94.00000000,91.99957274
370,94.00000000,91.99957274
371,94.00000000,91.99957274
372,94.00000000,91.99957274
373,94.00000000,91.99957274
374,94.00000000,91.99957274
375,94.00000000,91.99957274
376,94.00000000,91.99957274
377,94.00000000,91.99957274
378,94.00000000,91.99957274
379,94.00000000,91.99957274
380,94.00000000,90.99917600
381,94.00000000,90.99917600
382,94.00000000,90.99917600
383,94.00000000,90.99917600
384,95.00000000,88.99922178
385,95.00000000,83.99975585
386,95.00000000,79.00028993
387,95.00000000,79.00028993
388,95.00000000,76.00077822
389,95.00000000,74.00082400
390,95.00000000,73.00042726
391,95.00000000,73.00042726
392,95.00000000,73.00042726
393,95.00000000,73.00042726
394,95.00000000,73.00042726
395,95.00000000,70.00007630
396,95.00000000,69.00051881
397,95.00000000,68.00012207
398,95.00000000,68.00012207
399,95.00000000,68.00012207
400,95.00000000,71.00047304
401,95.00000000,71.00047304
402,95.00000000,76.00077822
403,95.00000000,78.00073244
404,95.00000000,78.00073244
405,95.00000000,79.00028993
406,95.00000000,79.00028993
407,95.00000000,76.00077822
408,95.00000000,74.00082400
409,95.00000000,72.00003052
410,95.00000000,72.00003052
411,95.00000000,72.00003052
412,94.00000000,75.00038148
413,94.00000000,75.00038148
414,94.00000000,76.00077822
415,94.00000000,76.00077822
416,94.00000000,77.00033570
417,94.00000000,77.00033570
418,94.00000000,77.00033570
419,94.00000000,78.00073244
420,94.00000000,78.00073244
421,94.00000000,77.00033570
422,94.00000000,77.00033570
423,94.00000000,77.00033570
424,94.00000000,79.00028993
425,94.00000000,80.00068667
426,94.00000000,80.00068667
427,94.00000000,80.99940489
428,94.00000000,80.99940489
429,94.00000000,81.99980163
430,94.00000000,83.99975585
431,94.00000000,83.99975585
432,94.00000000,84.99931333
433,94.00000000,83.99975585
434,94.00000000,81.99980163
435,95.00000000,80.99940489
436,95.00000000,81.99980163
437,95.00000000,81.99980163
438,95.00000000,81.99980163
439,95.00000000,81.99980163
440,95.00000000,81.99980163
441,95.00000000,80.99940489
442,94.00000000,80.99940489
443,94.00000000,80.00068667
444,94.00000000,78.00073244
445,94.00000000,77.00033570
446,94.00000000,77.00033570
447,94.00000000,75.00038148
448,94.00000000,75.00038148
449,94.00000000,77.00033570
450,94.00000000,77.00033570
451,94.00000000,77.00033570
452,94.00000000,77.00033570
453,94.00000000,78.00073244
454,94.00000000,80.00068667
455,94.00000000,80.00068667
456,94.00000000,84.99931333
457,94.00000000,85.99971007
458,94.00000000,85.99971007
459,94.00000000,86.99926756
460,94.00000000,84.99931333
461,94.00000000,83.99975585
462,94.00000000,83.99975585
463,94.00000000,83.99975585
464,94.00000000,84.99931333
465,94.00000000,84.99931333
466,94.00000000,83.99975585
467,94.00000000,83.99975585
468,94.00000000,83.99975585
469,94.00000000,83.99975585
470,94.00000000,83.99975585
471,94.00000000,83.99975585
472,94.00000000,83.99975585
473,94.00000000,83.99975585
474,94.00000000,81.99980163
475,94.00000000,81.99980163
476,94.00000000,80.00068667
477,94.00000000,80.00068667
478,94.00000000,80.00068667
479,94.00000000,79.00028993
480,94.00000000,80.00068667
481,94.00000000,83.99975585
482,94.00000000,83.99975585
483,94.00000000,83.99975585
484,94.00000000,85.99971007
485,94.00000000,85.99971007
486,94.00000000,85.99971007
487,94.00000000,85.99971007
488,94.00000000,85.99971007
489,94.00000000,85.99971007
490,94.00000000,85.99971007
491,94.00000000,85.99971007
492,94.00000000,85.99971007
493,94.00000000,88.99922178
494,94.00000000,88.99922178
495,93.00000000,90.99917600
496,93.00000000,91.99957274
497,93.00000000,91.99957274
498,93.00000000,92.99996948
499,93.00000000,90.99917600
500,93.00000000,90.99917600
501,93.00000000,90.99917600
502,93.00000000,89.99961852
503,94.00000000,89.99961852
504,94.00000000,87.99966430
505,94.00000000,87.99966430
506,94.00000000,87.99966430
507,94.00000000,87.99966430
508,94.00000000,87.99966430
509,94.00000000,87.99966430
510,94.00000000,87.99966430
511,94.00000000,87.99966430
512,94.00000000,90.99917600
513,94.00000000,90.99917600
514,94.00000000,90.99917600
515,94.00000000,90.99917600
516,94.00000000,91.99957274
517,94.00000000,91.99957274
518,94.00000000,91.99957274
519,94.00000000,91.99957274
520,94.00000000,91.99957274
521,94.00000000,91.99957274
522,94.00000000,91.99957274
523,94.00000000,93.99952696
524,94.00000000,93.99952696
525,94.00000000,93.99952696
526,94.00000000,94.99992370
527,94.00000000,94.99992370
528,94.00000000,94.99992370
529,94.00000000,97.99943541
530,93.00000000,96.99987793
531,93.00000000,96.99987793
532,93.00000000,97.99943541
533,93.00000000,98.99983215
534,93.00000000,98.99983215
535,93.00000000,98.99983215
536,93.00000000,98.99983215
537,93.00000000,95.99948119
538,94.00000000,93.99952696
539,94.00000000,93.99952696
540,94.00000000,92.99996948
541,94.00000000,92.99996948
542,94.00000000,91.99957274
543,94.00000000,91.99957274
544,94.00000000,92.99996948
545,94.00000000,93.99952696
546,94.00000000,93.99952696
547,94.00000000,94.99992370
548,94.00000000,94.99992370
549,94.00000000,95.99948119
550,94.00000000,95.99948119
551,93.00000000,97.99943541
552,93.00000000,97.99943541
553,93.00000000,97.99943541
554,93.00000000,97.99943541
555,93.00000000,98.99983215
556,93.00000000,98.99983215
557,93.00000000,98.99983215
558,93.00000000,99.99938963
559,93.00000000,99.99938963
560,93.00000000,99.99938963
561,93.00000000,98.99983215
562,93.00000000,98.99983215
563,94.00000000,96.99987793
564,94.00000000,95.99948119
565,95.00000000,94.99992370
566,95.00000000,93.99952696
567,95.00000000,92.99996948
568,95.00000000,92.99996948
569,95.00000000,92.99996948
570,95.00000000,92.99996948
571,95.00000000,92.99996948
572,95.00000000,92.99996948
573,95.00000000,93.99952696
574,95.00000000,93.99952696
575,94.00000000,95.99948119
576,94.00000000,96.99987793
577,94.00000000,96.99987793
578,94.00000000,97.99943541
579,94.00000000,98.99983215
580,94.00000000,100.99978637
581,93.00000000,103.99929807
582,93.00000000,103.99929807
583,93.00000000,103.99929807
584,93.00000000,103.99929807
585,93.00000000,103.99929807
586,93.00000000,103.99929807
587,93.00000000,103.99929807
588,93.00000000,102.99974059
589,93.00000000,102.99974059
590,93.00000000,102.99974059
591,93.00000000,102.99974059
592,93.00000000,102.99974059
593,93.00000000,102.99974059
594,93.00000000,102.99974059
595,93.00000000,102.99974059
596,93.00000000,102.99974059
597,93.00000000,102.99974059
598,93.00000000,102.99974059
599,93.00000000,102.99974059
600,94.00000000,103.99929807
601,94.00000000,102.99974059
602,94.00000000,102.99974059
603,94.00000000,103.99929807
604,94.00000000,103.99929807
605,94.00000000,103.99929807
606,94.00000000,103.99929807
607,94.00000000,103.99929807
608,94.00000000,103.99929807
609,94.00000000,103.99929807
610,94.00000000,103.99929807
611,94.00000000,103.99929807
612,94.00000000,103.99929807
613,94.00000000,103.99929807
614,94.00000000,103.99929807
615,94.00000000,103.99929807
616,94.00000000,104.99969481
617,94.00000000,104.99969481
618,94.00000000,105.99925230
619,94.00000000,105.99925230
620,94.00000000,107.99920652
621,94.00000000,107.99920652
622,93.00000000,107.99920652
623,93.00000000,107.99920652
624,93.00000000,107.99920652
625,93.00000000,107.99920652
626,93.00000000,106.99964904
627,93.00000000,106.99964904
628,93.00000000,106.99964904
629,93.00000000,106.99964904
630,93.00000000,106.99964904
631,95.00000000,79.00028993
632,95.00000000,70.00007630
633,95.00000000,70.00007630
634,95.00000000,66.00016785
635,95.00000000,65.00061037
636,95.00000000,62.00025941
637,95.00000000,62.00025941
638,95.00000000,59.00074770
639,95.00000000,56.00039674
640,95.00000000,54.00044252
641,95.00000000,54.00044252
642,95.00000000,55.00000000
643,94.00000000,57.00079348
644,94.00000000,57.00079348
645,94.00000000,58.00035096
646,94.00000000,58.00035096
647,94.00000000,59.00074770
648,94.00000000,60.00030518
649,94.00000000,59.00074770
650,94.00000000,57.00079348
651,94.00000000,57.00079348
652,94.00000000,58.00035096
653,94.00000000,57.00079348
654,94.00000000,57.00079348
655,95.00000000,58.00035096
656,95.00000000,59.00074770
657,95.00000000,59.00074770
658,95.00000000,59.00074770
659,95.00000000,59.00074770
660,95.00000000,61.00070193
661,94.00000000,61.00070193
662,94.00000000,62.00025941
663,94.00000000,61.00070193
664,94.00000000,62.00025941
665,94.00000000,62.00025941
666,94.00000000,62.00025941
667,94.00000000,62.00025941
668,94.00000000,62.00025941
669,94.00000000,60.00030518
670,95.00000000,60.00030518
671,95.00000000,62.00025941
672,95.00000000,64.00021363
673,96.00000000,65.00061037
674,96.00000000,67.00056459
675,95.00000000,66.00016785
676,95.00000000,66.00016785
677,95.00000000,66.00016785
678,95.00000000,66.00016785
679,95.00000000,66.00016785
680,95.00000000,66.00016785
681,95.00000000,66.00016785
682,95.00000000,66.00016785
683,95.00000000,66.00016785
684,95.00000000,66.00016785
685,95.00000000,66.00016785
686,95.00000000,66.00016785
687,95.00000000,66.00016785
688,95.00000000,66.00016785
689,95.00000000,66.00016785
690,95.00000000,66.00016785
691,95.00000000,65.00061037
692,95.00000000,65.00061037
693,96.00000000,64.00021363
694,95.00000000,63.00065615
695,95.00000000,62.00025941
696,95.00000000,61.00070193
697,95.00000000,59.00074770
698,95.00000000,59.00074770
699,95.00000000,59.00074770
700,95.00000000,59.00074770
701,95.00000000,59.00074770
702,95.00000000,59.00074770
703,95.00000000,59.00074770
704,95.00000000,59.00074770
705,95.00000000,58.00035096
706,95.00000000,58.00035096
707,95.00000000,58.00035096
708,95.00000000,57.00079348
709,95.00000000,57.00079348
710,95.00000000,56.00039674
711,95.00000000,55.00000000
712,95.00000000,54.00044252
713,95.00000000,54.00044252
714,95.00000000,56.00039674
715,95.00000000,56.00039674
716,95.00000000,55.00000000
717,95.00000000,55.00000000
718,95.00000000,55.00000000
719,95.00000000,55.00000000
720,95.00000000,54.00044252
721,95.00000000,54.00044252
722,95.00000000,55.00000000
723,95.00000000,56.00039674
724,95.00000000,56.00039674
725,95.00000000,57.00079348
726,95.00000000,58.00035096
727,95.00000000,58.00035096
728,95.00000000,58.00035096
729,95.00000000,58.00035096
730,95.00000000,58.00035096
731,95.00000000,58.00035096
732,95.00000000,57.00079348
733,95.00000000,57.00079348
734,95.00000000,57.00079348
735,95.00000000,57.00079348
736,95.00000000,56.00039674
737,95.00000000,56.00039674
738,95.00000000,57.00079348
739,95.00000000,59.00074770
740,95.00000000,60.00030518
741,95.00000000,61.00070193
742,95.00000000,62.00025941
743,95.00000000,61.00070193
744,95.00000000,61.00070193
745,95.00000000,60.00030518
746,94.00000000,60.00030518
747,94.00000000,60.00030518
748,94.00000000,60.00030518
749,94.00000000,60.00030518
750,94.00000000,61.00070193
751,94.00000000,60.00030518
752,94.00000000,59.00074770
753,94.00000000,60.00030518
754,94.00000000,60.00030518
755,94.00000000,61.00070193
756,94.00000000,60.00030518
757,94.00000000,61.00070193
758,94.00000000,60.00030518
759,94.00000000,59.00074770
760,94.00000000,59.00074770
761,94.00000000,58.00035096
762,94.00000000,58.00035096
763,94.00000000,58.00035096
764,94.00000000,58.00035096
765,94.00000000,58.00035096
766,94.00000000,58.00035096
767,94.00000000,58.00035096
768,94.00000000,58.00035096
769,94.00000000,58.00035096
770,94.00000000,58.00035096
771,94.00000000,57.00079348
772,94.00000000,57.00079348
773,94.00000000,57.00079348
774,94.00000000,57.00079348
775,94.00000000,56.00039674
776,94.00000000,55.00000000
777,94.00000000,55.00000000
778,94.00000000,55.00000000
779,94.00000000,55.00000000
780,94.00000000,55.00000000
781,94.00000000,56.00039674
782,94.00000000,56.00039674
783,94.00000000,55.00000000
784,94.00000000,55.00000000
785,94.00000000,55.00000000
786,94.00000000,55.00000000
787,95.00000000,55.00000000
788,95.00000000,56.00039674
789,95.00000000,56.00039674
790,95.00000000,57.00079348
791,95.00000000,57.00079348
792,95.00000000,57.00079348
793,95.00000000,57.00079348
794,95.00000000,57.00079348
795,95.00000000,57.00079348
796,95.00000000,56.00039674
797,95.00000000,56.00039674
798,95.00000000,57.00079348
799,95.00000000,57.00079348
800,95.00000000,56.00039674
801,95.00000000,57.00079348
802,95.00000000,57.00079348
803,95.00000000,58.00035096
804,95.00000000,58.00035096
805,95.00000000,59.00074770
806,95.00000000,59.00074770
807,95.00000000,60.00030518
808,95.00000000,60.00030518
809,95.00000000,61.00070193
810,95.00000000,61.00070193
811,95.00000000,63.00065615
812,95.00000000,64.00021363
813,95.00000000,64.00021363
814,95.00000000,63.00065615
815,95.00000000,63.00065615
816,95.00000000,64.00021363
817,95.00000000,64.00021363
818,95.00000000,64.00021363
819,95.00000000,65.00061037
820,95.00000000,66.00016785
821,95.00000000,66.00016785
822,95.00000000,66.00016785
823,95.00000000,66.00016785
824,95.00000000,66.00016785
825,95.00000000,66.00016785
826,94.00000000,66.00016785
827,94.00000000,66.00016785
828,94.00000000,66.00016785
829,94.00000000,66.00016785
830,94.00000000,65.00061037
831,94.00000000,66.00016785
832,94.00000000,66.00016785
833,94.00000000,66.00016785
834,94.00000000,66.00016785
835,94.00000000,65.00061037
836,94.00000000,64.00021363
837,94.00000000,63.00065615
838,94.00000000,62.00025941
839,94.00000000,62.00025941
840,94.00000000,62.00025941
841,94.00000000,61.00070193
842,94.00000000,60.00030518
843,94.00000000,60.00030518
844,94.00000000,61.00070193
845,94.00000000,60.00030518
846,94.00000000,60.00030518
847,94.00000000,60.00030518
848,94.00000000,61.00070193
849,94.00000000,61.00070193
850,94.00000000,62.00025941
851,94.00000000,63.00065615
852,94.00000000,63.00065615
853,94.00000000,63.00065615
854,94.00000000,63.00065615
855,94.00000000,64.00021363
856,94.00000000,64.00021363
857,94.00000000,64.00021363
858,94.00000000,64.00021363
859,94.00000000,64.00021363
860,94.00000000,64.00021363
861,94.00000000,66.00016785
862,94.00000000,66.00016785
863,94.00000000,67.00056459
864,94.00000000,67.00056459
865,94.00000000,67.00056459
866,95.00000000,67.00056459
867,95.00000000,67.00056459
868,95.00000000,67.00056459
869,95.00000000,67.00056459
870,95.00000000,67.00056459
871,95.00000000,67.00056459
872,95.00000000,67.00056459
873,95.00000000,67.00056459
874,95.00000000,67.00056459
875,95.00000000,67.00056459
876,95.00000000,66.00016785
877,95.00000000,66.00016785
878,95.00000000,66.00016785
879,95.00000000,66.00016785
880,95.00000000,65.00061037
881,95.00000000,65.00061037
882,95.00000000,64.00021363
883,95.00000000,63.00065615
884,95.00000000,63.00065615
885,95.00000000,63.00065615
886,95.00000000,63.00065615
887,95.00000000,63.00065615
888,95.00000000,63.00065615
889,95.00000000,63.00065615
890,95.00000000,63.00065615
891,95.00000000,63.00065615
892,95.00000000,63.00065615
893,95.00000000,62.00025941
894,95.00000000,62.00025941
895,95.00000000,62.00025941
896,95.00000000,62.00025941
897,95.00000000,62.00025941
898,95.00000000,60.00030518
899,95.00000000,59.00074770
900,95.00000000,58.00035096
901,94.00000000,58.00035096
902,94.00000000,58.00035096
903,94.00000000,58.00035096
904,94.00000000,57.00079348
905,94.00000000,57.00079348
906,94.00000000,57.00079348
907,94.00000000,56.00039674
908,94.00000000,56.00039674
909,94.00000000,57.00079348
910,94.00000000,58.00035096
911,94.00000000,59.00074770
912,94.00000000,60.00030518
913,94.00000000,61.00070193
914,94.00000000,61.00070193
915,94.00000000,62.00025941
916,94.00000000,64.00021363
917,94.00000000,65.00061037
918,94.00000000,67.00056459
919,94.00000000,69.00051881
920,94.00000000,69.00051881
921,94.00000000,69.00051881
922,93.00000000,69.00051881
923,93.00000000,67.00056459
924,93.00000000,63.00065615
925,93.00000000,61.00070193
926,93.00000000,59.00074770
927,93.00000000,58.00035096
928,93.00000000,58.00035096
929,93.00000000,58.00035096
930,93.00000000,60.00030518
931,94.00000000,62.00025941
932,94.00000000,79.00028993
933,94.00000000,79.00028993
934,94.00000000,80.99940489
935,94.00000000,80.99940489
936,94.00000000,84.99931333
937,94.00000000,84.99931333
938,95.00000000,86.99926756
939,95.00000000,85.99971007
940,95.00000000,84.99931333
941,95.00000000,80.00068667
942,95.00000000,76.00077822
943,96.00000000,76.00077822
944,96.00000000,72.00003052
945,96.00000000,68.00012207
946,96.00000000,66.00016785
947,96.00000000,64.00021363
948,96.00000000,61.00070193
949,96.00000000,60.00030518
950,96.00000000,60.00030518
951,96.00000000,60.00030518
952,96.00000000,60.00030518
953,96.00000000,61.00070193
954,96.00000000,63.00065615
955,96.00000000,63.00065615
956,96.00000000,64.00021363
957,96.00000000,64.00021363
958,96.00000000,65.00061037
959,96.00000000,64.00021363
960,96.00000000,63.00065615
961,96.00000000,62.00025941
962,96.00000000,62.00025941
963,96.00000000,62.00025941
964,96.00000000,63.00065615
965,96.00000000,64.00021363
966,96.00000000,67.00056459
967,96.00000000,67.00056459
968,96.00000000,68.00012207
969,96.00000000,70.00007630
970,96.00000000,70.00007630
971,96.00000000,71.00047304
972,96.00000000,72.00003052
973,96.00000000,72.00003052
974,96.00000000,74.00082400
975,96.00000000,74.00082400
976,96.00000000,76.00077822
977,96.00000000,81.99980163
978,96.00000000,83.99975585
979,96.00000000,83.99975585
980,96.00000000,84.99931333
981,96.00000000,84.99931333
982,95.00000000,82.99935911
983,95.00000000,82.99935911
984,96.00000000,81.99980163
985,96.00000000,81.99980163
986,96.00000000,80.00068667
987,96.00000000,79.00028993
988,96.00000000,78.00073244
989,96.00000000,78.00073244
990,96.00000000,77.00033570
991,96.00000000,77.00033570
992,96.00000000,78.00073244
993,96.00000000,80.00068667
994,96.00000000,80.00068667
995,96.00000000,80.99940489
996,96.00000000,80.00068667
997,96.00000000,80.00068667
998,96.00000000,79.00028993
999,96.00000000,79.00028993
1000,96.00000000,80.00068667
1001,96.00000000,80.00068667
1002,96.00000000,80.00068667
1003,95.00000000,79.00028993
1004,95.00000000,78.00073244
1005,95.00000000,78.00073244
1006,95.00000000,76.00077822
1007,95.00000000,76.00077822
1008,95.00000000,75.00038148
1009,96.00000000,75.00038148
1010,96.00000000,75.00038148
1011,96.00000000,75.00038148
1012,96.00000000,77.00033570
1013,95.00000000,78.00073244
1014,95.00000000,77.00033570
1015,95.00000000,77.00033570
1016,95.00000000,75.00038148
1017,95.00000000,75.00038148
1018,96.00000000,73.00042726
1019,96.00000000,72.00003052
1020,96.00000000,72.00003052
1021,96.00000000,72.00003052
1022,96.00000000,72.00003052
1023,96.00000000,72.00003052
1024,96.00000000,72.00003052
1025,96.00000000,73.00042726
1026,96.00000000,73.00042726
1027,96.00000000,74.00082400
1028,96.00000000,72.00003052
1029,96.00000000,71.00047304
1030,96.00000000,70.00007630
1031,96.00000000,69.00051881
1032,96.00000000,69.00051881
1033,96.00000000,68.00012207
1034,96.00000000,68.00012207
1035,96.00000000,69.00051881
1036,96.00000000,69.00051881
1037,96.00000000,71.00047304
1038,96.00000000,72.00003052
1039,96.00000000,74.00082400
1040,96.00000000,74.00082400
1041,96.00000000,75.00038148
1042,96.00000000,76.00077822
1043,96.00000000,76.00077822
1044,96.00000000,76.00077822
1045,96.00000000,76.00077822
1046,96.00000000,75.00038148
1047,96.00000000,75.00038148
1048,96.00000000,75.00038148
1049,96.00000000,75.00038148
1050,96.00000000,77.00033570
1051,96.00000000,78.00073244
1052,96.00000000,79.00028993
1053,96.00000000,79.00028993
1054,96.00000000,79.00028993
1055,96.00000000,78.00073244
1056,96.00000000,76.00077822
1057,96.00000000,75.00038148
1058,96.00000000,75.00038148
1059,96.00000000,75.00038148
1060,96.00000000,75.00038148
1061,96.00000000,75.00038148
1062,96.00000000,75.00038148
1063,96.00000000,75.00038148
1064,96.00000000,75.00038148
1065,96.00000000,75.00038148
1066,96.00000000,75.00038148
1067,96.00000000,75.00038148
1068,96.00000000,76.00077822
1069,96.00000000,76.00077822
1070,96.00000000,77.00033570
1071,96.00000000,78.00073244
1072,96.00000000,77.00033570
1073,96.00000000,78.00073244
1074,96.00000000,78.00073244
1075,96.00000000,78.00073244
1076,96.00000000,77.00033570
1077,97.00000000,77.00033570
1078,97.00000000,78.00073244
1079,97.00000000,78.00073244
1080,96.00000000,77.00033570
1081,96.00000000,77.00033570
1082,96.00000000,77.00033570
1083,96.00000000,77.00033570
1084,96.00000000,77.00033570
1085,96.00000000,77.00033570
1086,96.00000000,76.00077822
1087,96.00000000,76.00077822
1088,96.00000000,75.00038148
1089,96.00000000,75.00038148
1090,96.00000000,76.00077822
1091,96.00000000,76.00077822
1092,96.00000000,77.00033570
1093,96.00000000,77.00033570
1094,96.00000000,78.00073244
1095,96.00000000,79.00028993
1096,96.00000000,78.00073244
1097,97.00000000,77.00033570
1098,97.00000000,76.00077822
1099,97.00000000,76.00077822
1100,97.00000000,74.00082400
1101,97.00000000,73.00042726
1102,97.00000000,73.00042726
1103,97.00000000,72.00003052
1104,96.00000000,72.00003052
1105,96.00000000,74.00082400
1106,96.00000000,76.00077822
1107,96.00000000,76.00077822
1108,96.00000000,75.00038148
1109,96.00000000,74.00082400
1110,96.00000000,74.00082400
1111,96.00000000,73.00042726
1112,96.00000000,73.00042726
1113,96.00000000,73.00042726
1114,96.00000000,73.00042726
1115,97.00000000,75.00038148
1116,97.00000000,76.00077822
1117,97.00000000,76.00077822
1118,97.00000000,77.00033570
1119,96.00000000,77.00033570
1120,96.00000000,75.00038148
1121,96.00000000,75.00038148
1122,96.00000000,76.00077822
1123,96.00000000,76.00077822
1124,96.00000000,75.00038148
1125,96.00000000,76.00077822
1126,96.00000000,76.00077822
1127,96.00000000,76.00077822
1128,96.00000000,76.00077822
1129,96.00000000,76.00077822
1130,96.00000000,75.00038148
1131,96.00000000,75.00038148
1132,96.00000000,74.00082400
1133,97.00000000,73.00042726
1134,97.00000000,71.00047304
1135,97.00000000,68.00012207
1136,97.00000000,67.00056459
1137,97.00000000,66.00016785
1138,97.00000000,65.00061037
1139,97.00000000,65.00061037
1140,97.00000000,65.00061037
1141,97.00000000,66.00016785
1142,97.00000000,69.00051881
1143,97.00000000,69.00051881
1144,97.00000000,68.00012207
1145,97.00000000,66.00016785
1146,96.00000000,66.00016785
1147,96.00000000,65.00061037
1148,96.00000000,64.00021363
1149,96.00000000,64.00021363
1150,96.00000000,64.00021363
1151,96.00000000,65.00061037
1152,96.00000000,64.00021363
1153,96.00000000,65.00061037
1154,96.00000000,65.00061037
1155,96.00000000,65.00061037
1156,96.00000000,64.00021363
1157,96.00000000,64.00021363
1158,97.00000000,63.00065615
1159,97.00000000,62.00025941
1160,97.00000000,60.00030518
1161,97.00000000,59.00074770
1162,97.00000000,59.00074770
1163,97.00000000,59.00074770
1164,97.00000000,62.00025941
1165,97.00000000,62.00025941
1166,97.00000000,62.00025941
1167,97.00000000,64.00021363
1168,96.00000000,63.00065615
1169,96.00000000,62.00025941
1170,96.00000000,59.00074770
1171,96.00000000,57.00079348
1172,96.00000000,56.00039674
1173,96.00000000,56.00039674
1174,96.00000000,55.00000000
1175,96.00000000,55.00000000
1176,96.00000000,57.00079348
1177,96.00000000,57.00079348
1178,96.00000000,59.00074770
1179,96.00000000,59.00074770
1180,96.00000000,60.00030518
1181,96.00000000,59.00074770
1182,96.00000000,59.00074770
1183,96.00000000,60.00030518
1184,96.00000000,60.00030518
1185,96.00000000,62.00025941
1186,96.00000000,62.00025941
1187,96.00000000,65.00061037
1188,96.00000000,65.00061037
1189,96.00000000,66.00016785
1190,96.00000000,65.00061037
1191,96.00000000,64.00021363
1192,96.00000000,64.00021363
1193,96.00000000,63.00065615
1194,96.00000000,63.00065615
1195,96.00000000,64.00021363
1196,96.00000000,65.00061037
1197,96.00000000,66.00016785
1198,96.00000000,67.00056459
1199,96.00000000,67.00056459
1200,96.00000000,67.00056459
1201,97.00000000,68.00012207
1202,96.00000000,69.00051881
1203,97.00000000,71.00047304
1204,97.00000000,71.00047304
1205,97.00000000,71.00047304
1206,97.00000000,70.00007630
1207,97.00000000,70.00007630
1208,97.00000000,69.00051881
1209,97.00000000,72.00003052
1210,97.00000000,72.00003052
1211,97.00000000,73.00042726
1212,97.00000000,73.00042726
1213,97.00000000,73.00042726
1214,97.00000000,72.00003052
1215,97.00000000,70.00007630
1216,97.00000000,70.00007630
1217,97.00000000,70.00007630
1218,97.00000000,69.00051881
1219,98.00000000,69.00051881
1220,98.00000000,69.00051881
1221,98.00000000,69.00051881
1222,98.00000000,73.00042726
1223,98.00000000,73.00042726
1224,97.00000000,74.00082400
1225,97.00000000,74.00082400
1226,97.00000000,75.00038148
1227,97.00000000,74.00082400
1228,97.00000000,75.00038148
1229,97.00000000,76.00077822
1230,97.00000000,76.00077822
1231,97.00000000,76.00077822
1232,97.00000000,74.00082400
1233,97.00000000,73.00042726
1234,97.00000000,72.00003052
1235,97.00000000,71.00047304
1236,97.00000000,71.00047304
1237,97.00000000,70.00007630
1238,97.00000000,70.00007630
1239,97.00000000,69.00051881
1240,97.00000000,69.00051881
1241,97.00000000,68.00012207
1242,97.00000000,68.00012207
1243,97.00000000,67.00056459
1244,97.00000000,67.00056459
1245,97.00000000,67.00056459
1246,97.00000000,67.00056459
1247,97.00000000,66.00016785
1248,97.00000000,66.00016785
1249,97.00000000,65.00061037
1250,97.00000000,63.00065615
1251,97.00000000,63.00065615
1252,96.00000000,62.00025941
1253,96.00000000,62.00025941
1254,96.00000000,62.00025941
1255,96.00000000,62.00025941
1256,96.00000000,62.00025941
1257,96.00000000,63.00065615
1258,96.00000000,63.00065615
1259,96.00000000,62.00025941
1260,96.00000000,62.00025941
1261,96.00000000,61.00070193
1262,96.00000000,61.00070193
1263,96.00000000,61.00070193
1264,96.00000000,62.00025941
1265,96.00000000,62.00025941
1266,96.00000000,62.00025941
1267,96.00000000,62.00025941
1268,96.00000000,61.00070193
1269,96.00000000,60.00030518
1270,96.00000000,60.00030518
1271,96.00000000,61.00070193
1272,96.00000000,61.00070193
1273,96.00000000,63.00065615
1274,96.00000000,63.00065615
1275,96.00000000,65.00061037
1276,96.00000000,64.00021363
1277,96.00000000,64.00021363
1278,96.00000000,63.00065615
1279,96.00000000,63.00065615
1280,96.00000000,63.00065615
1281,96.00000000,63.00065615
1282,96.00000000,63.00065615
1283,96.00000000,64.00021363
1284,96.00000000,65.00061037
1285,96.00000000,65.00061037
1286,96.00000000,66.00016785
1287,96.00000000,68.00012207
1288,96.00000000,67.00056459
1289,96.00000000,67.00056459
1290,96.00000000,67.00056459
1291,96.00000000,67.00056459
1292,96.00000000,67.00056459
1293,96.00000000,68.00012207
1294,96.00000000,68.00012207
1295,97.00000000,69.00051881
1296,97.00000000,68.00012207
1297,97.00000000,67.00056459
1298,97.00000000,66.00016785
1299,97.00000000,66.00016785
1300,97.00000000,66.00016785
1301,97.00000000,66.00016785
1302,97.00000000,66.00016785
1303,97.00000000,66.00016785
1304,96.00000000,67.00056459
1305,96.00000000,67.00056459
1306,96.00000000,68.00012207
1307,96.00000000,68.00012207
1308,96.00000000,68.00012207
1309,96.00000000,68.00012207
1310,96.00000000,68.00012207
1311,96.00000000,69.00051881
1312,96.00000000,68.00012207
1313,96.00000000,69.00051881
1314,96.00000000,69.00051881
1315,96.00000000,69.00051881
1316,96.00000000,69.00051881
1317,96.00000000,69.00051881
1318,96.00000000,69.00051881
1319,96.00000000,68.00012207
1320,96.00000000,68.00012207
1321,96.00000000,70.00007630
1322,96.00000000,71.00047304
1323,96.00000000,72.00003052
1324,96.00000000,71.00047304
1325,96.00000000,71.00047304
1326,96.00000000,71.00047304
1327,96.00000000,71.00047304
1328,96.00000000,70.00007630
1329,96.00000000,70.00007630
1330,96.00000000,67.00056459
1331,95.00000000,68.00012207
1332,96.00000000,68.00012207
1333,96.00000000,68.00012207
1334,96.00000000,68.00012207
1335,96.00000000,67.00056459
1336,96.00000000,67.00056459
1337,96.00000000,67.00056459
1338,96.00000000,67.00056459
1339,96.00000000,67.00056459
1340,96.00000000,68.00012207
1341,96.00000000,68.00012207
1342,96.00000000,69.00051881
1343,96.00000000,68.00012207
1344,95.00000000,65.00061037
1345,95.00000000,63.00065615
1346,95.00000000,62.00025941
1347,95.00000000,61.00070193
1348,95.00000000,64.00021363
1349,95.00000000,64.00021363
1350,95.00000000,65.00061037
1351,95.00000000,66.00016785
1352,95.00000000,64.00021363
1353,95.00000000,61.00070193
1354,94.00000000,58.00035096
1355,94.00000000,58.00035096
1356,94.00000000,55.00000000
1357,94.00000000,54.00044252
1358,94.00000000,54.00044252
1359,94.00000000,54.00044252
1360,95.00000000,54.00044252
1361,94.00000000,54.00044252
1362,94.00000000,55.00000000
1363,94.00000000,55.00000000
1364,94.00000000,55.00000000
1365,94.00000000,55.00000000
1366,94.00000000,55.00000000
1367,95.00000000,56.00039674
1368,95.00000000,59.00074770
1369,95.00000000,59.00074770
1370,95.00000000,59.00074770
1371,95.00000000,60.00030518
1372,95.00000000,59.00074770
1373,95.00000000,59.00074770
1374,95.00000000,59.00074770
1375,95.00000000,59.00074770
1376,94.00000000,60.00030518
1377,94.00000000,61.00070193
1378,94.00000000,62.00025941
1379,94.00000000,64.00021363
1380,94.00000000,64.00021363
1381,94.00000000,65.00061037
1382,94.00000000,65.00061037
1383,94.00000000,65.00061037
1384,94.00000000,65.00061037
1385,94.00000000,65.00061037
1386,94.00000000,64.00021363
1387,94.00000000,64.00021363
1388,95.00000000,64.00021363
1389,95.00000000,64.00021363
1390,95.00000000,63.00065615
1391,95.00000000,63.00065615
1392,95.00000000,63.00065615
1393,95.00000000,63.00065615
1394,94.00000000,64.00021363
1395,94.00000000,63.00065615
1396,94.00000000,64.00021363
1397,94.00000000,64.00021363
1398,94.00000000,63.00065615
1399,94.00000000,62.00025941
1400,94.00000000,60.00030518
1401,94.00000000,60.00030518
1402,94.00000000,59.00074770
1403,94.00000000,59.00074770
1404,94.00000000,59.00074770
1405,94.00000000,59.00074770
1406,94.00000000,60.00030518
1407,94.00000000,60.00030518
1408,94.00000000,60.00030518
1409,94.00000000,60.00030518
1410,94.00000000,59.00074770
1411,94.00000000,59.00074770
1412,94.00000000,59.00074770
1413,94.00000000,58.00035096
1414,94.00000000,58.00035096
1415,94.00000000,57.00079348
1416,94.00000000,59.00074770
1417,94.00000000,58.00035096
1418,94.00000000,60.00030518
1419,94.00000000,60.00030518
1420,94.00000000,60.00030518
1421,94.00000000,59.00074770
1422,94.00000000,58.00035096
1423,94.00000000,58.00035096
1424,94.00000000,58.00035096
1425,94.00000000,57.00079348
1426,94.00000000,58.00035096
1427,94.00000000,59.00074770
1428,94.00000000,59.00074770
1429,94.00000000,60.00030518
1430,94.00000000,61.00070193
1431,94.00000000,61.00070193
1432,94.00000000,61.00070193
1433,94.00000000,61.00070193
1434,94.00000000,62.00025941
1435,94.00000000,62.00025941
1436,94.00000000,62.00025941
1437,94.00000000,63.00065615
1438,94.00000000,63.00065615
1439,94.00000000,63.00065615
1440,94.00000000,62.00025941
1441,94.00000000,61.00070193
1442,94.00000000,61.00070193
1443,94.00000000,61.00070193
1444,94.00000000,60.00030518
1445,94.00000000,60.00030518
1446,94.00000000,60.00030518
1447,94.00000000,60.00030518
1448,94.00000000,60.00030518
1449,94.00000000,60.00030518
1450,94.00000000,60.00030518
1451,94.00000000,60.00030518
1452,94.00000000,60.00030518
1453,94.00000000,60.00030518
1454,94.00000000,61.00070193
1455,94.00000000,61.00070193
1456,94.00000000,61.00070193
1457,94.00000000,61.00070193
1458,94.00000000,61.00070193
1459,94.00000000,60.00030518
1460,94.00000000,60.00030518
1461,94.00000000,60.00030518
1462,95.00000000,60.00030518
1463,95.00000000,60.00030518
1464,95.00000000,60.00030518
1465,95.00000000,60.00030518
1466,95.00000000,60.00030518
1467,95.00000000,60.00030518
1468,95.00000000,60.00030518
1469,95.00000000,60.00030518
1470,95.00000000,60.00030518
1471,95.00000000,60.00030518
1472,95.00000000,60.00030518
1473,95.00000000,61.00070193
1474,95.00000000,62.00025941
1475,95.00000000,62.00025941
1476,95.00000000,63.00065615
1477,94.00000000,63.00065615
1478,94.00000000,63.00065615
1479,94.00000000,63.00065615
1480,94.00000000,63.00065615
1481,94.00000000,62.00025941
1482,94.00000000,64.00021363
1483,94.00000000,64.00021363
1484,94.00000000,64.00021363
1485,94.00000000,64.00021363
1486,94.00000000,64.00021363
1487,95.00000000,63.00065615
1488,95.00000000,62.00025941
1489,95.00000000,61.00070193
1490,95.00000000,61.00070193
1491,95.00000000,61.00070193
1492,95.00000000,62.00025941
1493,95.00000000,64.00021363
1494,95.00000000,67.00056459
1495,95.00000000,67.00056459
1496,95.00000000,68.00012207
1497,95.00000000,67.00056459
1498,95.00000000,67.00056459
1499,95.00000000,66.00016785
1500,95.00000000,67.00056459
1501,95.00000000,69.00051881
1502,95.00000000,69.00051881
1503,95.00000000,69.00051881
1504,95.00000000,69.00051881
1505,95.00000000,69.00051881
1506,95.00000000,69.00051881
1507,95.00000000,69.00051881
1508,95.00000000,68.00012207
1509,95.00000000,67.00056459
1510,95.00000000,65.00061037
1511,95.00000000,65.00061037
1512,95.00000000,65.00061037
1513,95.00000000,66.00016785
1514,95.00000000,66.00016785
1515,95.00000000,66.00016785
1516,95.00000000,65.00061037
1517,95.00000000,65.00061037
1518,95.00000000,65.00061037
1519,95.00000000,65.00061037
1520,95.00000000,65.00061037
1521,95.00000000,66.00016785
1522,95.00000000,66.00016785
1523,95.00000000,68.00012207
1524,95.00000000,68.00012207
1525,95.00000000,69.00051881
1526,95.00000000,69.00051881
1527,95.00000000,68.00012207
1528,95.00000000,67.00056459
1529,95.00000000,67.00056459
1530,95.00000000,67.00056459
1531,95.00000000,67.00056459
1532,95.00000000,68.00012207
1533,95.00000000,68.00012207
1534,95.00000000,69.00051881
1535,95.00000000,69.00051881
1536,95.00000000,69.00051881
1537,95.00000000,69.00051881
1538,95.00000000,68.00012207
1539,95.00000000,68.00012207
1540,95.00000000,68.00012207
1541,95.00000000,68.00012207
1542,95.00000000,70.00007630
1543,95.00000000,70.00007630
1544,95.00000000,71.00047304
1545,95.00000000,70.00007630
1546,95.00000000,68.00012207
1547,95.00000000,67.00056459
1548,96.00000000,66.00016785
1549,96.00000000,66.00016785
1550,96.00000000,68.00012207
1551,95.00000000,68.00012207
1552,95.00000000,68.00012207
1553,95.00000000,67.00056459
1554,95.00000000,65.00061037
1555,96.00000000,65.00061037
1556,95.00000000,63.00065615
1557,96.00000000,61.00070193
1558,96.00000000,60.00030518
1559,96.00000000,60.00030518
1560,96.00000000,59.00074770
1561,96.00000000,59.00074770
1562,96.00000000,60.00030518
1563,96.00000000,60.00030518
1564,96.00000000,59.00074770
1565,96.00000000,59.00074770
1566,96.00000000,59.00074770
1567,96.00000000,59.00074770
1568,96.00000000,58.00035096
1569,96.00000000,59.00074770
1570,95.00000000,58.00035096
1571,95.00000000,61.00070193
1572,95.00000000,61.00070193
1573,95.00000000,63.00065615
1574,95.00000000,64.00021363
1575,95.00000000,65.00061037
1576,95.00000000,65.00061037
1577,95.00000000,64.00021363
1578,95.00000000,63.00065615
1579,95.00000000,62.00025941
1580,95.00000000,62.00025941
1581,95.00000000,60.00030518
1582,95.00000000,61.00070193
1583,95.00000000,61.00070193
1584,95.00000000,61.00070193
1585,95.00000000,62.00025941
1586,95.00000000,62.00025941
1587,95.00000000,62.00025941
1588,95.00000000,61.00070193
1589,95.00000000,61.00070193
1590,95.00000000,61.00070193
1591,95.00000000,61.00070193
1592,95.00000000,62.00025941
1593,95.00000000,62.00025941
1594,95.00000000,64.00021363
1595,95.00000000,64.00021363
1596,95.00000000,64.00021363
1597,95.00000000,64.00021363
1598,95.00000000,63.00065615
1599,95.00000000,61.00070193
1600,95.00000000,61.00070193
1601,95.00000000,61.00070193
1602,95.00000000,61.00070193
1603,95.00000000,61.00070193
1604,95.00000000,61.00070193
1605,95.00000000,62.00025941
1606,96.00000000,63.00065615
1607,95.00000000,66.00016785
1608,95.00000000,67.00056459
1609,95.00000000,67.00056459
1610,95.00000000,67.00056459
1611,95.00000000,67.00056459
1612,96.00000000,67.00056459
1613,96.00000000,67.00056459
1614,96.00000000,67.00056459
1615,96.00000000,67.00056459
1616,96.00000000,66.00016785
1617,96.00000000,65.00061037
1618,96.00000000,64.00021363
1619,96.00000000,63.00065615
1620,96.00000000,63.00065615
1621,96.00000000,62.00025941
1622,95.00000000,62.00025941
1623,95.00000000,61.00070193
1624,95.00000000,61.00070193
1625,95.00000000,61.00070193
1626,95.00000000,61.00070193
1627,95.00000000,61.00070193
1628,95.00000000,61.00070193
1629,95.00000000,61.00070193
1630,95.00000000,61.00070193
1631,96.00000000,61.00070193
1632,96.00000000,61.00070193
1633,96.00000000,61.00070193
1634,96.00000000,61.00070193
1635,96.00000000,61.00070193
1636,96.00000000,60.00030518
1637,95.00000000,60.00030518
1638,95.00000000,60.00030518
1639,95.00000000,61.00070193
1640,95.00000000,63.00065615
1641,95.00000000,63.00065615
1642,95.00000000,64.00021363
1643,96.00000000,64.00021363
1644,96.00000000,65.00061037
1645,96.00000000,64.00021363
1646,96.00000000,62.00025941
1647,96.00000000,61.00070193
1648,96.00000000,60.00030518
1649,95.00000000,59.00074770
1650,96.00000000,60.00030518
1651,97.00000000,59.00074770
1652,96.00000000,59.00074770
1653,96.00000000,59.00074770
1654,96.00000000,59.00074770
1655,96.00000000,59.00074770
1656,96.00000000,59.00074770
1657,96.00000000,59.00074770
1658,96.00000000,59.00074770
1659,96.00000000,59.00074770
1660,96.00000000,59.00074770
1661,96.00000000,59.00074770
1662,96.00000000,59.00074770
1663,96.00000000,59.00074770
1664,97.00000000,59.00074770
1665,96.00000000,59.00074770
1666,96.00000000,59.00074770
1667,96.00000000,59.00074770
1668,95.00000000,59.00074770
1669,95.00000000,59.00074770
1670,95.00000000,59.00074770
1671,95.00000000,59.00074770
1672,95.00000000,59.00074770
1673,95.00000000,59.00074770
1674,96.00000000,60.00030518
1675,97.00000000,64.00021363
1676,97.00000000,67.00056459
1677,97.00000000,67.00056459
1678,97.00000000,69.00051881
1679,97.00000000,69.00051881
1680,97.00000000,70.00007630
1681,97.00000000,71.00047304
1682,97.00000000,71.00047304
1683,97.00000000,69.00051881
1684,97.00000000,68.00012207
1685,97.00000000,67.00056459
1686,97.00000000,66.00016785
1687,97.00000000,66.00016785
1688,97.00000000,66.00016785
1689,96.00000000,67.00056459
1690,96.00000000,66.00016785
1691,96.00000000,65.00061037
1692,96.00000000,65.00061037
1693,96.00000000,64.00021363
1694,97.00000000,63.00065615
1695,96.00000000,62.00025941
1696,96.00000000,61.00070193
1697,96.00000000,61.00070193
1698,96.00000000,62.00025941
1699,95.00000000,61.00070193
1700,95.00000000,61.00070193
1701,95.00000000,60.00030518
1702,95.00000000,59.00074770
1703,95.00000000,59.00074770
1704,95.00000000,59.00074770
1705,95.00000000,59.00074770
1706,95.00000000,59.00074770
1707,95.00000000,59.00074770
1708,95.00000000,59.00074770
1709,95.00000000,59.00074770
1710,95.00000000,58.00035096
1711,95.00000000,58.00035096
1712,95.00000000,58.00035096
1713,95.00000000,59.00074770
1714,95.00000000,61.00070193
1715,95.00000000,61.00070193
1716,95.00000000,61.00070193
1717,95.00000000,61.00070193
1718,95.00000000,62.00025941
1719,96.00000000,62.00025941
1720,96.00000000,63.00065615
1721,95.00000000,65.00061037
1722,95.00000000,66.00016785
1723,95.00000000,66.00016785
1724,96.00000000,67.00056459
1725,96.00000000,66.00016785
1726,96.00000000,66.00016785
1727,96.00000000,65.00061037
1728,96.00000000,66.00016785
1729,96.00000000,65.00061037
1730,96.00000000,69.00051881
1731,97.00000000,70.00007630
1732,97.00000000,71.00047304
1733,97.00000000,69.00051881
1734,97.00000000,68.00012207
1735,97.00000000,66.00016785
1736,97.00000000,65.00061037
1737,97.00000000,62.00025941
1738,97.00000000,61.00070193
1739,97.00000000,60.00030518
1740,97.00000000,60.00030518
1741,97.00000000,60.00030518
1742,97.00000000,60.00030518
1743,97.00000000,60.00030518
1744,97.00000000,60.00030518
1745,97.00000000,61.00070193
1746,97.00000000,62.00025941
1747,97.00000000,62.00025941
1748,97.00000000,63.00065615
1749,97.00000000,63.00065615
1750,97.00000000,64.00021363
1751,97.00000000,65.00061037
1752,97.00000000,65.00061037
1753,97.00000000,65.00061037
1754,97.00000000,66.00016785
1755,97.00000000,66.00016785
1756,97.00000000,66.00016785
1757,97.00000000,66.00016785
1758,97.00000000,66.00016785
1759,97.00000000,67.00056459
1760,97.00000000,67.00056459
1761,97.00000000,67.00056459
1762,97.00000000,68.00012207
1763,97.00000000,68.00012207
1764,97.00000000,68.00012207
1765,97.00000000,68.00012207
1766,97.00000000,69.00051881
1767,97.00000000,70.00007630
1768,97.00000000,71.00047304
1769,97.00000000,71.00047304
1770,97.00000000,72.00003052
1771,97.00000000,72.00003052
1772,97.00000000,72.00003052
1773,97.00000000,72.00003052
1774,97.00000000,72.00003052
1775,97.00000000,72.00003052
1776,97.00000000,74.00082400
1777,97.00000000,74.00082400
1778,97.00000000,75.00038148
1779,97.00000000,76.00077822
1780,97.00000000,76.00077822
1781,97.00000000,75.00038148
1782,97.00000000,74.00082400
1783,97.00000000,74.00082400
1784,97.00000000,75.00038148
1785,97.00000000,75.00038148
1786,98.00000000,75.00038148
1787,98.00000000,74.00082400
1788,98.00000000,73.00042726
1789,98.00000000,72.00003052
1790,97.00000000,70.00007630
1791,97.00000000,70.00007630
1792,97.00000000,70.00007630
1793,97.00000000,70.00007630
1794,98.00000000,70.00007630
1795,98.00000000,71.00047304
1796,97.00000000,71.00047304
1797,97.00000000,71.00047304
1798,97.00000000,71.00047304
1799,97.00000000,71.00047304
1800,97.00000000,71.00047304
1801,97.00000000,70.00007630
1802,97.00000000,70.00007630
1803,97.00000000,70.00007630
1804,97.00000000,71.00047304
1805,96.00000000,73.00042726
1806,96.00000000,75.00038148
1807,96.00000000,75.00038148
1808,96.00000000,75.00038148
1809,97.00000000,75.00038148
1810,97.00000000,74.00082400
1811,97.00000000,73.00042726
1812,97.00000000,73.00042726
1813,97.00000000,74.00082400
1814,97.00000000,74.00082400
1815,97.00000000,73.00042726
1816,97.00000000,72.00003052
1817,97.00000000,72.00003052
1818,97.00000000,72.00003052
1819,97.00000000,73.00042726
1820,97.00000000,73.00042726
1821,97.00000000,73.00042726
1822,97.00000000,73.00042726
1823,97.00000000,73.00042726
1824,97.00000000,72.00003052
1825,97.00000000,69.00051881
1826,97.00000000,68.00012207
1827,97.00000000,68.00012207
1828,97.00000000,68.00012207
1829,98.00000000,68.00012207
1830,98.00000000,68.00012207
1831,98.00000000,67.00056459
1832,98.00000000,67.00056459
1833,98.00000000,67.00056459
1834,98.00000000,67.00056459
1835,98.00000000,67.00056459
1836,98.00000000,67.00056459
1837,98.00000000,69.00051881
1838,98.00000000,69.00051881
1839,98.00000000,69.00051881
1840,97.00000000,69.00051881
1841,98.00000000,70.00007630
1842,97.00000000,70.00007630
1843,97.00000000,70.00007630
1844,97.00000000,71.00047304
1845,98.00000000,72.00003052
1846,98.00000000,72.00003052
1847,98.00000000,73.00042726
1848,98.00000000,76.00077822
1849,98.00000000,76.00077822
1850,98.00000000,77.00033570
1851,98.00000000,76.00077822
1852,98.00000000,76.00077822
1853,98.00000000,75.00038148
1854,98.00000000,75.00038148
1855,98.00000000,78.00073244
1856,98.00000000,80.99940489
1857,98.00000000,80.99940489
1858,98.00000000,79.00028993
1859,98.00000000,78.00073244
1860,98.00000000,77.00033570
1861,98.00000000,75.00038148
1862,98.00000000,72.00003052
1863,98.00000000,71.00047304
1864,98.00000000,71.00047304
1865,98.00000000,70.00007630
1866,98.00000000,70.00007630
1867,98.00000000,70.00007630
1868,98.00000000,71.00047304
1869,98.00000000,72.00003052
1870,98.00000000,71.00047304
1871,98.00000000,71.00047304
1872,98.00000000,70.00007630
1873,98.00000000,68.00012207
1874,98.00000000,68.00012207
1875,98.00000000,66.00016785
1876,98.00000000,65.00061037
1877,98.00000000,64.00021363
1878,98.00000000,63.00065615
1879,98.00000000,64.00021363
1880,98.00000000,64.00021363
1881,98.00000000,64.00021363
1882,98.00000000,64.00021363
1883,98.00000000,64.00021363
1884,98.00000000,62.00025941
1885,98.00000000,62.00025941
1886,98.00000000,60.00030518
1887,98.00000000,60.00030518
1888,98.00000000,60.00030518
1889,98.00000000,61.00070193
1890,98.00000000,61.00070193
1891,98.00000000,61.00070193
1892,98.00000000,61.00070193
1893,98.00000000,61.00070193
1894,98.00000000,61.00070193
1895,98.00000000,61.00070193
1896,98.00000000,61.00070193
1897,98.00000000,61.00070193
1898,98.00000000,61.00070193
1899,98.00000000,61.00070193
1900,98.00000000,62.00025941
1901,98.00000000,62.00025941
1902,98.00000000,62.00025941
1903,98.00000000,62.00025941
1904,98.00000000,63.00065615
1905,98.00000000,63.00065615
1906,98.00000000,64.00021363
1907,98.00000000,64.00021363
1908,98.00000000,65.00061037
1909,98.00000000,67.00056459
1910,98.00000000,67.00056459
1911,98.00000000,67.00056459
1912,98.00000000,67.00056459
1913,98.00000000,68.00012207
1914,98.00000000,68.00012207
1915,98.00000000,70.00007630
1916,98.00000000,72.00003052
1917,98.00000000,74.00082400
1918,98.00000000,72.00003052
1919,98.00000000,72.00003052
1920,98.00000000,72.00003052
1921,98.00000000,72.00003052
1922,98.00000000,72.00003052
1923,98.00000000,72.00003052
1924,98.00000000,76.00077822
1925,98.00000000,77.00033570
1926,98.00000000,79.00028993
1927,98.00000000,76.00077822
1928,98.00000000,72.00003052
1929,98.00000000,69.00051881
1930,98.00000000,65.00061037
1931,98.00000000,65.00061037
1932,98.00000000,65.00061037
1933,98.00000000,68.00012207
1934,98.00000000,70.00007630
1935,98.00000000,70.00007630
1936,98.00000000,71.00047304
1937,98.00000000,73.00042726
1938,98.00000000,74.00082400
1939,98.00000000,74.00082400
1940,98.00000000,74.00082400
1941,98.00000000,73.00042726
1942,98.00000000,74.00082400
1943,98.00000000,73.00042726
1944,98.00000000,74.00082400
1945,98.00000000,74.00082400
1946,98.00000000,74.00082400
1947,98.00000000,74.00082400
1948,98.00000000,72.00003052
1949,98.00000000,71.00047304
1950,98.00000000,69.00051881
1951,98.00000000,67.00056459
1952,98.00000000,67.00056459
1953,98.00000000,66.00016785
1954,98.00000000,66.00016785
1955,98.00000000,65.00061037
1956,98.00000000,65.00061037
1957,98.00000000,65.00061037
1958,98.00000000,65.00061037
1959,98.00000000,64.00021363
1960,98.00000000,64.00021363
1961,98.00000000,63.00065615
1962,98.00000000,63.00065615
1963,98.00000000,63.00065615
1964,98.00000000,63.00065615
1965,98.00000000,64.00021363
1966,98.00000000,65.00061037
1967,98.00000000,65.00061037
1968,98.00000000,65.00061037
1969,98.00000000,64.00021363
1970,98.00000000,63.00065615
1971,98.00000000,62.00025941
1972,98.00000000,62.00025941
1973,98.00000000,61.00070193
1974,98.00000000,61.00070193
1975,98.00000000,61.00070193
1976,98.00000000,60.00030518
1977,98.00000000,60.00030518
1978,98.00000000,60.00030518
1979,98.00000000,61.00070193
1980,97.00000000,61.00070193
1981,97.00000000,61.00070193
1982,98.00000000,61.00070193
1983,98.00000000,61.00070193
1984,98.00000000,60.00030518
1985,98.00000000,59.00074770
1986,98.00000000,58.00035096
1987,98.00000000,58.00035096
1988,97.00000000,58.00035096
1989,97.00000000,58.00035096
1990,98.00000000,68.00012207
1991,98.00000000,67.00056459
1992,98.00000000,67.00056459
1993,98.00000000,67.00056459
1994,98.00000000,66.00016785
1995,98.00000000,66.00016785
1996,98.00000000,65.00061037
1997,98.00000000,63.00065615
1998,98.00000000,63.00065615
1999,98.00000000,62.00025941
2000,98.00000000,60.00030518
2001,98.00000000,60.00030518
2002,98.00000000,60.00030518
2003,98.00000000,60.00030518
2004,98.00000000,61.00070193
2005,98.00000000,61.00070193
2006,98.00000000,61.00070193
2007,97.00000000,60.00030518
2008,97.00000000,59.00074770
2009,97.00000000,58.00035096
2010,97.00000000,57.00079348
2011,97.00000000,57.00079348
2012,97.00000000,57.00079348
2013,97.00000000,57.00079348
2014,97.00000000,58.00035096
2015,97.00000000,58.00035096
2016,97.00000000,60.00030518
2017,97.00000000,61.00070193
2018,97.00000000,62.00025941
2019,97.00000000,62.00025941
2020,97.00000000,60.00030518
2021,97.00000000,58.00035096
2022,96.00000000,56.00039674
2023,96.00000000,55.00000000
2024,96.00000000,55.00000000
2025,96.00000000,55.00000000
2026,96.00000000,57.00079348
2027,96.00000000,60.00030518
2028,96.00000000,61.00070193
2029,95.00000000,63.00065615
2030,95.00000000,64.00021363
2031,95.00000000,63.00065615
2032,95.00000000,62.00025941
2033,96.00000000,61.00070193
2034,96.00000000,61.00070193
2035,96.00000000,61.00070193
2036,96.00000000,61.00070193
2037,96.00000000,61.00070193
2038,96.00000000,61.00070193
2039,96.00000000,61.00070193
2040,96.00000000,62.00025941
2041,96.00000000,63.00065615
2042,96.00000000,63.00065615
2043,96.00000000,64.00021363
2044,96.00000000,63.00065615
2045,95.00000000,63.00065615
2046,95.00000000,63.00065615
2047,95.00000000,63.00065615
2048,95.00000000,64.00021363
2049,95.00000000,65.00061037
2050,95.00000000,66.00016785
2051,95.00000000,67.00056459
2052,95.00000000,68.00012207
2053,95.00000000,66.00016785
2054,95.00000000,64.00021363
2055,95.00000000,63.00065615
2056,95.00000000,62.00025941
2057,95.00000000,61.00070193
2058,95.00000000,61.00070193
2059,95.00000000,60.00030518
2060,95.00000000,61.00070193
2061,95.00000000,61.00070193
2062,95.00000000,62.00025941
2063,95.00000000,62.00025941
2064,96.00000000,61.00070193
2065,96.00000000,61.00070193
2066,96.00000000,59.00074770
2067,96.00000000,58.00035096
2068,96.00000000,57.00079348
2069,96.00000000,57.00079348
2070,96.00000000,57.00079348
2071,96.00000000,57.00079348
2072,96.00000000,57.00079348
2073,96.00000000,58.00035096
2074,96.00000000,58.00035096
2075,96.00000000,58.00035096
2076,96.00000000,58.00035096
2077,96.00000000,58.00035096
2078,96.00000000,58.00035096
2079,96.00000000,58.00035096
2080,96.00000000,57.00079348
2081,96.00000000,57.00079348
2082,95.00000000,56.00039674
2083,94.00000000,56.00039674
2084,94.00000000,56.00039674
2085,94.00000000,56.00039674
2086,94.00000000,56.00039674
2087,94.00000000,56.00039674
2088,94.00000000,56.00039674
2089,94.00000000,56.00039674
2090,94.00000000,56.00039674
2091,94.00000000,56.00039674
2092,95.00000000,56.00039674
2093,95.00000000,56.00039674
2094,95.00000000,56.00039674
2095,95.00000000,56.00039674
2096,95.00000000,57.00079348
2097,95.00000000,57.00079348
2098,95.00000000,59.00074770
2099,95.00000000,59.00074770
2100,95.00000000,60.00030518
2101,95.00000000,62.00025941
2102,95.00000000,63.00065615
2103,95.00000000,64.00021363
2104,95.00000000,65.00061037
2105,95.00000000,65.00061037
2106,95.00000000,65.00061037
2107,95.00000000,65.00061037
2108,95.00000000,65.00061037
2109,95.00000000,65.00061037
2110,95.00000000,65.00061037
2111,95.00000000,65.00061037
2112,95.00000000,65.00061037
2113,95.00000000,65.00061037
2114,95.00000000,65.00061037
2115,95.00000000,65.00061037
2116,95.00000000,65.00061037
2117,94.00000000,65.00061037
2118,94.00000000,65.00061037
2119,94.00000000,65.00061037
2120,94.00000000,65.00061037
2121,94.00000000,62.00025941
2122,94.00000000,62.00025941
2123,94.00000000,62.00025941
2124,94.00000000,62.00025941
2125,94.00000000,62.00025941
2126,95.00000000,67.00056459
2127,95.00000000,67.00056459
2128,95.00000000,67.00056459
2129,95.00000000,67.00056459
2130,95.00000000,67.00056459
2131,95.00000000,67.00056459
2132,95.00000000,67.00056459
2133,95.00000000,67.00056459
2134,95.00000000,67.00056459
2135,95.00000000,67.00056459
2136,95.00000000,62.00025941
2137,95.00000000,62.00025941
2138,96.00000000,62.00025941
2139,96.00000000,59.00074770
2140,96.00000000,58.00035096
2141,96.00000000,58.00035096
2142,96.00000000,57.00079348
2143,96.00000000,58.00035096
2144,96.00000000,59.00074770
2145,96.00000000,60.00030518
2146,95.00000000,60.00030518
2147,95.00000000,60.00030518
2148,95.00000000,60.00030518
2149,95.00000000,60.00030518
2150,95.00000000,60.00030518
2151,95.00000000,62.00025941
2152,95.00000000,64.00021363
2153,95.00000000,66.00016785
2154,95.00000000,68.00012207
2155,95.00000000,68.00012207
2156,96.00000000,68.00012207
2157,96.00000000,68.00012207
2158,96.00000000,68.00012207
2159,96.00000000,68.00012207
2160,98.00000000,68.00012207
2161,98.00000000,69.00051881
2162,97.00000000,70.00007630
2163,97.00000000,70.00007630
2164,97.00000000,71.00047304
2165,96.00000000,71.00047304
2166,96.00000000,70.00007630
2167,96.00000000,69.00051881
2168,96.00000000,68.00012207
2169,96.00000000,67.00056459
2170,96.00000000,67.00056459
2171,96.00000000,67.00056459
2172,96.00000000,71.00047304
2173,96.00000000,74.00082400
2174,96.00000000,74.00082400
2175,96.00000000,75.00038148
2176,96.00000000,74.00082400
2177,96.00000000,72.00003052
2178,96.00000000,69.00051881
2179,96.00000000,66.00016785
2180,96.00000000,63.00065615
2181,96.00000000,61.00070193
2182,96.00000000,60.00030518
2183,96.00000000,60.00030518
2184,96.00000000,60.00030518
2185,96.00000000,60.00030518
2186,96.00000000,60.00030518
2187,96.00000000,61.00070193
2188,96.00000000,62.00025941
2189,96.00000000,63.00065615
2190,96.00000000,65.00061037
2191,96.00000000,66.00016785
2192,96.00000000,66.00016785
2193,96.00000000,67.00056459
2194,96.00000000,67.00056459
2195,96.00000000,67.00056459
2196,96.00000000,68.00012207
2197,96.00000000,68.00012207
2198,96.00000000,70.00007630
2199,96.00000000,73.00042726
2200,96.00000000,74.00082400
2201,96.00000000,72.00003052
2202,96.00000000,71.00047304
2203,96.00000000,71.00047304
2204,97.00000000,73.00042726
2205,96.00000000,76.00077822
2206,96.00000000,78.00073244
2207,97.00000000,80.99940489
2208,97.00000000,80.99940489
2209,97.00000000,80.99940489
2210,97.00000000,79.00028993
2211,97.00000000,77.00033570
2212,97.00000000,75.00038148
2213,97.00000000,73.00042726
2214,97.00000000,73.00042726
2215,97.00000000,72.00003052
2216,97.00000000,72.00003052
2217,97.00000000,72.00003052
2218,97.00000000,71.00047304
2219,97.00000000,69.00051881
2220,97.00000000,68.00012207
2221,97.00000000,67.00056459
2222,97.00000000,67.00056459
2223,97.00000000,66.00016785
2224,97.00000000,66.00016785
2225,97.00000000,68.00012207
2226,97.00000000,69.00051881
2227,97.00000000,70.00007630
2228,97.00000000,70.00007630
2229,97.00000000,70.00007630
2230,96.00000000,71.00047304
2231,96.00000000,70.00007630
2232,96.00000000,67.00056459
2233,96.00000000,66.00016785
2234,96.00000000,65.00061037
2235,96.00000000,65.00061037
2236,96.00000000,65.00061037
2237,96.00000000,64.00021363
2238,96.00000000,64.00021363
2239,96.00000000,63.00065615
2240,96.00000000,63.00065615
2241,96.00000000,62.00025941
2242,96.00000000,61.00070193
2243,96.00000000,60.00030518
2244,96.00000000,60.00030518
2245,96.00000000,60.00030518
2246,96.00000000,60.00030518
2247,96.00000000,60.00030518
2248,96.00000000,61.00070193
2249,96.00000000,61.00070193
2250,96.00000000,61.00070193
2251,96.00000000,61.00070193
2252,96.00000000,62.00025941
2253,96.00000000,62.00025941
2254,96.00000000,62.00025941
2255,96.00000000,62.00025941
2256,96.00000000,62.00025941
2257,96.00000000,63.00065615
2258,96.00000000,63.00065615
2259,96.00000000,63.00065615
2260,96.00000000,63.00065615
2261,96.00000000,63.00065615
2262,95.00000000,63.00065615
2263,95.00000000,63.00065615
2264,96.00000000,62.00025941
2265,96.00000000,62.00025941
2266,96.00000000,62.00025941
2267,96.00000000,61.00070193
2268,96.00000000,60.00030518
2269,96.00000000,59.00074770
2270,96.00000000,59.00074770
2271,96.00000000,58.00035096
2272,96.00000000,60.00030518
2273,96.00000000,61.00070193
2274,96.00000000,62.00025941
2275,96.00000000,63.00065615
2276,96.00000000,64.00021363
2277,96.00000000,64.00021363
2278,96.00000000,63.00065615
2279,96.00000000,62.00025941
2280,96.00000000,61.00070193
2281,96.00000000,60.00030518
2282,96.00000000,60.00030518
2283,96.00000000,60.00030518
2284,96.00000000,60.00030518
2285,96.00000000,60.00030518
2286,96.00000000,60.00030518
2287,96.00000000,60.00030518
2288,96.00000000,60.00030518
